! Center RA: 04 33 11.09553,  Dec: +05 21 15.61921 (2000.0)
! Tentative model.
! Flux (Jy) Radius (mas)  Theta (deg)  Major FWHM (mas)  Axial ratio   Phi (deg) T \
! Freq (Hz)     SpecIndex
-0.00462352      1.22703     -109.026 
-0.00255695     0.902441     -102.804 
-0.000488856      1.17644     -107.819 
-0.000126534     0.941488     -102.265 
-0.00169025     0.950789     -104.621 
-0.00242863      1.08812     -107.103 
0.00222701     0.357771     -116.565 
0.00150342     0.215407     -68.1986 
0.00209802     0.432666     -123.690 
0.000815337     0.233238     -59.0362 
-0.00271809     0.226274      135.000 
-0.000862235      1.27812     -110.136 
-0.000586124     0.357771      63.4349 
0.00211815      10.9857     -111.801 
-0.00181430     0.906863     -131.424 
0.000557139      3.59578     -117.135 
0.000111356     0.226274     -45.0000 
-0.000851133     0.377359      57.9946 
-0.000412733      10.2170     -115.261 
-0.000298661      3.49285     -103.241 
-0.000297431      4.21217     -108.263 
-0.000449235      3.28877     -108.435 
0.000371460     0.200000     -53.1301 
0.000174077      3.64966     -117.408 
0.000161313      2.86775     -120.141 
-0.000770695      11.0569     -117.585 
6.40950e-05     0.243310     -80.5377 
0.000486296     0.967471     -119.745 
-6.15466e-05      10.6096     -113.085 
0.000498557      10.5371     -115.884 
-0.000536334      9.73850     -112.457 
0.000504034      2.84788     -119.445 
-0.000980014      2.61565     -113.429 
-0.000319433      10.1638     -115.153 
-3.00458e-05      4.19142     -113.629 
-0.000129490      10.6253     -113.284 
-0.000420496     0.466476     -149.036 
-0.000206550      3.64330     -98.8418 
-0.000474082     0.544059     -107.103 
-0.000107256      4.20761     -114.128 
0.000863678     0.913017     -118.811 
0.000642001      3.57771     -116.565 
8.24769e-05      11.3252     -117.561 
-0.000291995      10.6779     -113.396 
-0.000494625      3.45508     -110.323 
0.000622103      11.3437     -117.740 
0.000354110      2.84084     -122.347 
8.60968e-05     0.240000     -90.0000 
-0.000298993      1.12641     -106.504 
-0.000259532      3.98898     -105.709 
-0.000449866      4.24415     -113.908 
-0.000589238      3.27634     -107.771 
0.000171508      1.02215     -120.579 
-0.000238753      1.29244     -111.801 
0.000572012      10.5197     -115.688 
-0.000184221      3.68283     -98.7462 
-0.000358614     0.989545     -104.036 
-0.000203038      1.67523     -123.311 
-0.000211005      1.69753     -124.439 
-6.20039e-05      10.9542     -114.600 
-6.23676e-05      9.79077     -112.584 
0.000346529     0.456070     -127.875 
0.000364637      2.78568     -111.038 
-0.000158440      4.16192     -103.903 
-0.000313666      9.93177     -115.017 
-0.000147853      10.6412     -113.481 
-0.000346053      9.75385     -112.674 
0.000239698      1.07703     -121.329 
-0.000291240      10.1468     -114.949 
-0.000225673      10.9906     -114.513 
0.000124042     0.178885     -63.4349 
-8.51414e-05      4.00000     -106.260 
0.000468848      3.30841     -104.708 
0.000164370      3.63142     -116.847 
0.000134292     0.377359     -122.005 
0.000215878      3.04631     -119.932 
-3.63579e-05      3.93975     -105.306 
-0.000230576      10.4658     -111.761 
-0.000213395     0.447214     -153.435 
-0.000209932     0.533667     -102.995 
-0.000161462      3.95049     -105.866 
3.31541e-05      3.41971     -114.167 
9.69273e-05      1.13208     -122.005 
7.88219e-05     0.282843     -171.870 
-7.84830e-05      10.6572     -113.679 
3.07579e-05      3.49857     -120.964 
0.000136843      1.16619     -120.964 
2.97321e-05     0.268328      26.5651 
1.49402e-05      2.97321     -107.216 
1.48973e-05      3.44581     -99.3530 
1.48579e-05     0.858836     -117.759 
-1.48049e-05      1.16482     -105.945 
