! Center RA: 22 02 43.29137,  Dec: +42 16 39.97987 (2000.0)
! Tentative model.
! Flux (Jy) Radius (mas)  Theta (deg)  Major FWHM (mas)  Axial ratio   Phi (deg) T \
! Freq (Hz)     SpecIndex
 0.0244409    0.0400000      0.00000 
-0.0212638     0.243310     -170.538 
-0.00530135     0.240000      180.000 
0.00197920     0.447214     -153.435 
0.000234727     0.200000      36.8699 
0.000580536     0.468188     -160.017 
0.00597694      0.00000      0.00000 
0.00395903     0.430813     -158.199 
0.00242405     0.226274      45.0000 
-0.00669898     0.203961     -168.690 
-0.000853342      1.36528     -174.958 
0.000795887     0.411825     -150.945 
-0.000979656      1.36938     -173.290 
-0.000986624      1.40911     -173.480 
-0.000239136      1.40057     -178.363 
0.00220803     0.456070     -164.745 
-0.000470565      1.36000      180.000 
0.00127125      1.08812     -162.897 
0.000755052      7.96251     -178.561 
-0.000378045      5.27788      152.464 
0.000842982      7.39135     -174.721 
-0.000967439      2.89772     -173.660 
0.000913660     0.377359     -147.995 
-0.000495163      5.11625      153.034 
0.000317204      6.97160     -160.213 
-0.000288672      1.40000      180.000 
-0.000471077      5.31338      152.663 
0.000932512      8.24621     -177.776 
-0.00108728      8.33479     -166.964 
-0.000877033      1.45382     -172.093 
0.000430708      7.21343      176.503 
0.000818484     0.787909     -156.038 
0.000740604      9.23064      164.157 
0.000445632     0.126491     -71.5651 
-0.000156689      5.33187      152.281 
0.000723231      7.35054      168.384 
-0.000970643      4.04811      168.024 
-0.000391774      5.34176      159.394 
0.00123966      6.80294      167.435 
0.000751314      9.65617      158.110 
-0.000877617      2.93503     -162.553 
-0.000400890      5.52941      151.952 
-0.000343699      1.36059      178.315 
-0.00141672      6.96735      164.687 
0.000153363      9.53755      158.600 
-0.000104185      2.40832      175.236 
-0.000628508      3.57994      166.430 
-0.000259078      7.14871      148.266 
0.00117654      4.80000      180.000 
0.000592594      4.52354     -158.199 
-0.000404399      7.10752      155.743 
-0.000434913      2.26274     -171.870 
0.000439072      5.68690      177.178 
0.000586687      6.25843     -175.601 
-0.000325267      6.88767      152.691 
-0.000127823      2.45177      174.382 
0.000322954      7.52394      169.586 
-0.000369821      5.07685      163.993 
0.000459126      5.31097     -168.267 
0.000761730      8.24476     -168.527 
-0.00139604      7.50733     -168.630 
-0.000511444      8.12325      160.137 
-0.000219964      2.50056      172.648 
-0.000739767      5.65756     -155.791 
0.000184697      7.24707     -166.271 
-0.000403217      8.32586     -167.232 
-0.000264871      3.48092     -178.683 
-0.000642179      8.36268      160.438 
-0.00102061      8.18828      166.439 
6.45070e-05      1.07703     -164.932 
-0.00100099      2.30269      162.824 
0.000241929      4.73506     -171.254 
9.40140e-05      6.56597      168.759 
0.000152055      7.30644     -167.029 
-0.000706580     0.368782      167.471 
0.000241516      7.21787     -165.887 
-0.00105016      9.09373      167.553 
0.000495699      7.87604     -168.576 
0.000136409     0.933809     -170.134 
0.000505770      6.04635     -157.847 
0.000105940      6.57389      168.417 
-0.000138372      5.37922      159.544 
0.000380864      6.98536     -165.407 
0.000745563      6.60521      168.826 
0.000187082    0.0894427      116.565 
-0.000460901      2.26874      170.870 
-0.000841461      7.38279      165.888 
-0.000569086      7.16190      148.707 
-0.000527969      2.44818      175.314 
0.000696761      7.34542     -167.099 
-0.000106909      5.64128     -156.161 
-0.000346021      5.11531      164.116 
-0.000473446      5.60257      151.422 
-0.000554803      5.13280      166.938 
0.000144305      7.86903     -164.975 
2.73895e-05      6.30149      175.267 
-0.000526543      5.72098     -159.538 
0.000765995     0.126491      108.435 
-5.33843e-05      8.86557      169.603 
-0.000359460      6.13775      159.794 
-0.000160514      5.13404      153.635 
9.93673e-05      7.21598      176.186 
0.000563851      4.69553     -171.180 
-0.000519891      7.19555      151.440 
-0.000340589      7.09118      156.038 
0.000283393     0.688186     -144.462 
0.000363764      6.29832      175.629 
-5.12590e-05      1.44056     -178.409 
-0.000506614      3.80841     -162.897 
-0.000592540      8.37902      169.548 
-0.000119848      2.20436     -168.486 
0.000134855     0.344093     -144.462 
-0.000242494      3.15696     -157.659 
-0.000164024      1.71814     -167.905 
0.000347827      7.39513     -174.413 
0.000567891      7.81404      167.885 
7.31069e-05      9.16803      165.600 
-0.000274251      8.82623      169.556 
0.000533396      9.03433      163.009 
-0.000493187      3.77020     -162.719 
0.000232659      7.32830      173.418 
7.25407e-05      6.94665     -172.057 
0.000682713     0.120000     -90.0000 
-0.000130727      1.50625      169.287 
-0.000369190      3.52091     -178.698 
-0.000281977      3.19399     -157.932 
-0.000313905      5.60471     -155.996 
-0.000519249      1.49933     -170.789 
-0.000391054     0.417612      163.301 
-0.000695034      3.12128     -149.162 
0.000170138     0.967471     -172.875 
0.000449388      1.35351     -161.030 
0.000298820      7.10538      175.156 
-0.000265742      6.85215      152.537 
0.000354681      4.45655     -151.595 
0.000134054      6.05601     -175.833 
0.000124388      7.43107      170.081 
-0.000322767      2.41661      167.574 
0.000319149      9.50032      158.512 
-0.000128875      6.90797      148.979 
0.000259642      7.82417     -172.657 
-0.000200783      5.08063      152.830 
0.000287209      6.91271     -171.682 
-0.000313412      4.62411     -149.886 
-2.28806e-05      1.44222     -176.820 
0.000374465     0.113137      135.000 
0.000223020      9.13937      165.295 
4.27095e-05     0.847585     -160.710 
-0.000896796     0.203961     -11.3099 
2.26456e-05      7.86384     -172.694 
-0.000492203      2.25743     -172.875 
-0.000192617      8.75159      166.789 
-0.000407771      8.67373      170.711 
0.000508364      6.24461      177.797 
-0.000485944      6.92867      148.696 
-2.21509e-05      6.11110      169.058 
0.000551850      6.91908      161.460 
-2.19075e-05      7.12404      155.450 
0.000584263      8.18134     -172.979 
0.000307552      7.51031     -167.074 
0.000235414      7.89461      176.514 
-0.000372049      2.32998     -168.111 
0.000605421      7.88406     -168.291 
-2.18250e-05      8.68028      170.451 
0.000187048      8.23981     -170.218 
-0.000386102      8.37616      160.181 
0.000311011      3.46433     -143.924 
-0.000348035      6.55671      171.227 
9.58631e-05      4.49177     -171.293 
-0.000137591      6.10364      169.426 
0.000349041      8.11123     -165.141 
-0.000126616      1.76590     -166.908 
-0.000371866      6.92878      164.600 
7.32717e-05      7.22772     -165.579 
0.000287672      6.01917     -175.426 
-0.000102522      4.66236      170.618 
-0.000106054      2.40832      168.503 
0.000323511      5.06597     -158.703 
0.000143464      7.25589      176.207 
-0.000213174      6.60594      159.809 
-5.85069e-05      2.77157     -159.734 
0.000329309      5.59614      170.538 
-9.25262e-05      3.40376      177.306 
-0.000480193      1.85300     -166.264 
0.000277751      4.92406      177.672 
1.99033e-05      9.10068      165.231 
-8.40246e-05      1.32242      176.532 
-0.000537084      4.89637     -175.314 
-0.000204587      4.93964      174.890 
-0.000260959      5.63773      151.617 
0.000208759      5.68901      176.775 
-0.000322979      8.94293      175.896 
-0.000302376      3.36214      177.955 
-0.000145247      4.57961      160.615 
0.000585324      5.42896      163.301 
-5.51200e-05      7.17652      151.721 
-3.77641e-05      3.36476     -161.996 
5.42599e-05      7.96362     -178.273 
0.000376104      3.80526      176.987 
-0.000193368      6.61211      176.532 
0.000103748      7.72756     -171.367 
0.000171476      7.01929     -175.752 
0.000326505      7.38182      168.751 
-0.000268346      3.35261     -162.646 
0.000415475      1.85084     -173.797 
-5.47808e-05      6.74306      172.158 
-0.000374216      5.70712     -159.914 
0.000110292     0.873613     -164.055 
-0.000248306      5.24061      179.125 
0.000375553      7.52170      150.709 
0.000189062      4.11145     -160.684 
0.000552764      2.20327      176.878 
0.000428464      3.78164     -169.641 
-5.86857e-05      9.11412      157.825 
-1.81142e-05      2.82645     -153.072 
-0.000217118      5.65685      151.260 
-0.000290762      9.27284      162.425 
0.000169729      8.44824      155.376 
-7.90752e-05      2.85797     -173.571 
-0.000210110      2.49191      161.274 
0.000343684     0.769415     -152.103 
-0.000416999      6.58847     -158.263 
-8.43493e-05      7.05464      155.906 
-0.000135953      2.75797     -160.514 
0.000235680      9.14960      165.052 
-0.000378321      7.46030     -168.871 
-0.000149049      6.06432      169.357 
0.000253359      6.22177     -175.206 
0.000165035      8.05600     -171.146 
-9.66358e-05      9.06201      157.964 
-0.000311190      7.01313      159.291 
-0.000309848      6.70343      172.112 
0.000210517      8.24670     -169.944 
-0.000248526      3.31904     -167.471 
7.75697e-05     0.963328     -175.236 
-0.000129918      1.46697      168.996 
-0.000143430      5.23129     -156.571 
0.000111800      3.98497     -160.656 
0.000165039      7.53796      176.044 
-0.000111022      5.99760     -160.115 
-0.000493873      5.00879     -153.435 
-0.000109513      4.24302      177.839 
-0.000441857      7.78974      174.992 
0.000451073     0.401995      5.71059 
6.07083e-05      7.14871      174.864 
-0.000261288      6.78599     -168.094 
-8.47956e-05      2.84478     -152.354 
-3.20388e-05      8.16088      160.233 
0.000128938      7.47743      169.832 
0.000119838      5.27181     -168.179 
-0.000229151      5.36418     -162.646 
4.56389e-05      7.19911     -165.192 
0.000457569      6.61695      162.770 
-1.59397e-05      2.89689     -162.316 
-0.000328742      8.92574      166.524 
-0.000178595      6.08763     -168.247 
-0.000225939      7.03841      156.203 
0.000153630      6.00933     -157.703 
-0.000260074      5.38591     -171.027 
-0.000122073      6.00120      178.854 
-9.96343e-05      8.49847      165.833 
-0.000259334      8.32500      160.346 
0.000303916      3.94725     -160.463 
-0.000257415      6.47765     -171.119 
0.000290169      6.91167      150.913 
0.000138707      6.32582     -162.711 
0.000197048      7.76711     -171.411 
-0.000264763      6.61985      159.484 
-0.000249156      6.64831     -158.839 
-0.000172175      7.99400      166.103 
-0.000120193      5.76014      153.613 
0.000149550      7.93453      176.532 
0.000126575      6.96161     -159.482 
-0.000152593      7.17707      155.292 
8.97962e-05      7.16904      177.122 
-0.000258203      5.21199      160.731 
0.000131593      6.00866     -162.168 
-4.28578e-05      6.17531      159.922 
8.30448e-05      7.35532     -174.382 
1.49260e-05      5.77124     -176.424 
0.000154251      7.68802      171.322 
0.000130100      6.90275     -175.347 
-0.000134053      3.75766     -154.799 
-0.000112270      8.33854      160.087 
5.59634e-05      7.81977      154.877 
4.08979e-05      7.18899     -165.500 
-0.000197626      6.03523     -160.244 
-1.47059e-05      7.94561      166.314 
-0.000120449      4.29865     -174.661 
-0.000182541      8.75498      162.724 
-8.06966e-05      2.90269      168.071 
-0.000116219      7.01313      147.579 
-0.000252273      4.28299      177.859 
-1.44102e-05      1.49345     -172.304 
0.000266808      6.09380     -164.778 
-4.17655e-05      2.36136      169.261 
4.02016e-05      7.29855      175.914 
0.000277382      4.78565      163.989 
0.000275190      4.28299     -177.859 
-0.000238062      8.94016      176.152 
0.000102183      5.77387     -176.028 
0.000175102      8.12158     -164.869 
-0.000187889      3.79579      172.126 
8.04287e-05      9.23723      164.941 
0.000211446      4.70472      153.217 
4.03306e-05      9.64133      158.331 
0.000126522      1.88680     -175.135 
-7.67956e-05      6.55073      171.573 
-0.000206121      7.69051      173.429 
4.02141e-05      6.94665     -165.324 
-0.000210169      5.99426      173.871 
-7.78109e-05      5.68183     -163.223 
-0.000127822      6.40063      173.541 
-3.78658e-05      5.16991      153.831 
0.000111516      7.97215      176.836 
-3.92339e-05      4.74384      160.801 
1.36353e-05      6.97940     -175.727 
0.000149194      5.28015     -167.754 
0.000147030      6.13058      176.634 
0.000195184      7.46212      154.946 
-0.000160975      5.34640     -170.961 
0.000159825      6.63687      169.232 
-7.29392e-05      3.15569     -149.534 
-7.36158e-05      1.32544      174.806 
-7.49839e-05      4.61407      175.525 
0.000171423      8.33739      162.695 
0.000111503      3.80337      177.589 
-1.33268e-05      7.40616      157.452 
-0.000133898      4.76000     -151.928 
1.31479e-05      9.18825      165.117 
-6.27855e-05      7.44097     -179.076 
-0.000133087      5.41361     -165.450 
0.000145497     0.824621     -157.166 
0.000191781      7.57786      176.065 
7.34375e-05      1.34104     -162.646 
-9.67755e-05      7.44312      157.570 
-0.000108170      9.31098      162.499 
-3.82630e-05      6.68180     -163.301 
-0.000143462      7.60095      179.095 
-0.000107757      3.00958      175.426 
7.32914e-05      2.16333      176.820 
-0.000130489      4.47214      169.695 
-0.000119340      8.48877      166.095 
-2.54098e-05      2.93721     -150.642 
-0.000107118      5.56360      153.988 
4.84913e-05      6.37520     -176.042 
-4.83127e-05      4.70608      160.641 
-5.97059e-05      4.00899      167.905 
8.55405e-05      6.86929     -165.155 
2.50821e-05     0.656049     -142.431 
-4.84893e-05      4.65721      175.073 
-7.12075e-05      6.36088      173.501 
-5.90453e-05      5.07007     -170.463 
0.000142271      9.19861      164.876 
-0.000211687      6.72012     -163.399 
-4.84854e-05      6.76473      151.768 
0.000107431      6.31506     -169.046 
4.78832e-05      6.84842      168.887 
-4.70152e-05      4.25883     -174.611 
-5.85272e-05      7.35967      171.562 
3.53422e-05      7.76660      155.019 
-9.33340e-05      4.21900     -148.570 
1.24028e-05      1.00080     -177.709 
-9.34970e-05      4.25281     -163.610 
-0.000116434      8.49781      158.749 
-5.83167e-05      2.97214     -151.020 
-7.01170e-05     0.954149     -146.976 
5.81728e-05      7.35935     -174.072 
-8.10242e-05      9.06545      156.602 
-4.64772e-05      2.92985     -147.829 
-2.36131e-05      3.11512     -167.391 
4.61290e-05      6.90785     -166.608 
-4.64540e-05     0.407922      168.690 
5.80553e-05     0.624820     -140.194 
-5.71455e-05      1.32966     -173.089 
-8.05546e-05     0.280000      180.000 
-0.000103260      7.73025      173.463 
-5.72625e-05      3.73888     -153.983 
2.32761e-05      6.84199      167.508 
5.74543e-05      5.02872     -158.537 
-4.58656e-05      6.29234     -157.184 
-5.69542e-05      8.38150      175.895 
5.71511e-05      3.94462     -149.534 
3.41770e-05      8.41190      155.263 
-2.30619e-05      7.48096     -179.081 
4.53074e-05      5.95839      162.417 
3.40647e-05      7.28044      167.949 
5.66133e-05      6.83064     -165.069 
-2.28389e-05      5.72014     -163.339 
-2.26392e-05      2.36913      168.311 
-4.52621e-05      6.77785     -168.425 
5.64901e-05      7.47133     -167.005 
-2.27070e-05      6.01771      169.661 
3.39788e-05      5.97234     -157.557 
2.26191e-05      4.76000      180.000 
3.38245e-05      4.28803      171.416 
-2.26872e-05      6.07289     -160.372 
-2.25866e-05      4.97305     -153.229 
-2.24261e-05      2.91122      167.300 
1.13903e-05      9.41216      160.641 
-3.36726e-05      7.42892     -163.419 
1.13481e-05      1.43388     -157.011 
-2.24557e-05      6.60981      176.878 
2.24746e-05      7.33299      173.108 
-1.13368e-05      5.36731      152.480 
-2.24829e-05      6.80000      151.928 
-2.23767e-05      4.87032     -160.821 
1.13004e-05      7.88091      158.253 
1.12929e-05      7.18187     -175.528 
2.22741e-05      9.17257      160.380 
-1.12447e-05      6.93951      164.281 
2.23714e-05      6.89545      168.625 
-1.12275e-05      8.66672      162.820 
-2.22572e-05      6.16169     -160.271 
1.11849e-05     0.960833     -177.614 
1.11574e-05      5.24107     -167.661 
-1.11637e-05      7.83316      174.726 
2.21576e-05      7.80666     -171.455 
-1.11319e-05      7.68604      173.726 
1.11172e-05      6.54070     -175.440 
-1.10582e-05      3.00000      163.740 
-1.10480e-05      7.31333      149.789 
1.10240e-05      8.08990      177.166 
1.10223e-05      4.42140     -151.348 
