! Center RA: 07 21 53.44848,  Dec: +71 20 36.36340 (2000.0)
! Tentative model.
! Flux (Jy) Radius (mas)  Theta (deg)  Major FWHM (mas)  Axial ratio   Phi (deg) T \
! Freq (Hz)     SpecIndex
-0.0253128      0.00000      0.00000 
-0.00595473    0.0400000      180.000 
-0.00462848    0.0565685     -45.0000 
0.000879919     0.594643      42.2737 
0.000839449     0.233238      30.9638 
0.00110135     0.288444      33.6901 
0.000483039     0.565685      45.0000 
0.000236028     0.256125      38.6598 
0.000445028     0.622254      45.0000 
0.00153179      2.50727      33.9436 
-0.00250623    0.0894427      153.435 
0.000242100     0.200000      36.8699 
0.00130808     0.144222      33.6901 
0.000608116     0.751532      64.7989 
0.000862885      2.06495      21.5953 
0.00105398      2.26062      13.2986 
4.13435e-05     0.538145      41.9872 
-0.00133494    0.0894427     -26.5651 
3.83505e-05     0.509117      45.0000 
0.000137830     0.481664      41.6335 
0.000645387     0.678822      45.0000 
0.000637245     0.456070      37.8750 
0.000471298     0.769415      62.1027 
-0.00129952     0.987927      58.2405 
-0.000702023      2.47095      29.0546 
-0.000645265      2.44884      38.3675 
0.000862953     0.113137      45.0000 
-0.000541136      2.45601      30.3236 
-0.000918559      2.80713      40.9555 
0.000504085      2.75536      27.6811 
0.000471751      1.28250      3.57633 
0.000136439      3.00293      41.7603 
0.000630192      3.08934      41.3255 
-0.000332275     0.561427      4.08562 
-0.000639858      1.24193      14.9314 
0.000548025      2.52982      34.6952 
0.000674094     0.804984      63.4349 
0.000630642      1.61988      20.2249 
0.000191589     0.735391      45.0000 
-0.000437910      1.04307      32.4712 
5.84765e-05      2.19126      21.4130 
2.06063e-05      2.30790      25.6768 
0.000161275      2.20617      22.3801 
0.000294796     0.344093      35.5377 
-0.000522551     0.282843      98.1301 
0.000134646      3.00666      40.6840 
0.000463948      1.44941      27.9795 
-0.000488251      2.08806      16.6992 
-0.000797956      1.42773      11.3099 
-0.000392727      2.47935      10.2222 
0.000285565      2.25460      25.2011 
0.000215384      2.60277      43.7546 
0.000127471      1.56205      2.93567 
0.000749432     0.113137     -135.000 
0.000251462     0.432666      33.6901 
0.000512039      1.32544      5.19443 
0.000112402      2.73701      26.9395 
-9.19051e-05      1.00319      66.5014 
-8.60674e-05     0.526118      8.74616 
0.000349744      2.22854      21.0375 
0.000219500      2.25211      33.4078 
0.000535857     0.120000      90.0000 
0.000251135     0.707672      47.2906 
-3.26558e-05     0.486621      9.46232 
-0.000195094      2.39266      38.2110 
0.000202280      2.77042      17.6501 
1.62879e-05      2.97644      41.1859 
0.000215162      1.67093      11.0409 
0.000287119      1.45602      15.9454 
-0.000343229     0.456070      15.2551 
-0.000314867      1.32966      21.1613 
0.000114112      3.01144      39.6107 
7.10986e-05     0.824621      39.0939 
-2.95965e-05      2.17624      17.1027 
-9.52306e-05      1.28561     -5.35582 
-0.000162375      2.21450      16.7984 
7.94490e-05      2.27438      34.2490 
-7.95937e-05      2.36812      37.4506 
5.21383e-05     0.203961      11.3099 
6.48653e-05      2.30894      14.0362 
-1.27959e-05      1.90158      22.2490 
-2.55001e-05      2.69429      40.7858 
1.27419e-05      2.88444      33.6901 
