! Center RA: 04 33 11.09553,  Dec: +05 21 15.61921 (2000.0)
! Tentative model.
! Flux (Jy) Radius (mas)  Theta (deg)  Major FWHM (mas)  Axial ratio   Phi (deg) T \
! Freq (Hz)     SpecIndex
-0.00378997      1.22703     -109.026 
-0.00298933      1.21458     -107.241 
-0.00136099     0.885438     -108.435 
-0.00104054      1.01980     -101.310 
-0.00117145    0.0894427      26.5651 
-0.000306153      1.05906     -100.886 
-0.000357215     0.923472     -107.650 
-0.000248159      1.36059     -114.305 
0.000890797      2.92246     -120.426 
-0.000355559      1.41365     -115.115 
-0.00135088    0.0565685      45.0000 
-0.000383797     0.322490      82.8750 
-9.91155e-05      1.37753     -115.821 
-9.03441e-05      1.06733     -102.995 
-0.000696452     0.282843      81.8699 
-9.05232e-05     0.912140     -105.255 
-0.000278939      1.39542     -117.300 
-0.000872290     0.720000     -90.0000 
-0.000802863      1.08000     -90.0000 
0.00126369     0.400000     -126.870 
-0.000112545     0.902441     -102.804 
-0.000228625      1.02840     -103.496 
0.000520601     0.377359     -122.005 
0.000937490      2.90241     -119.745 
-0.000560461     0.226274      135.000 
-0.000211883     0.329848      75.9638 
-0.000404527      1.41421     -118.740 
0.000484904      4.08725     -101.860 
-0.000409591      3.29193     -117.499 
-5.84648e-05     0.894427     -100.305 
-0.000584592      10.4467     -113.227 
0.000859716      11.0247     -112.844 
-5.87700e-05     0.898888     -110.854 
0.000566743     0.203961     -78.6901 
-0.000448748      10.0574     -114.934 
-0.000127311      1.41873     -111.501 
0.000185215      10.9913     -118.710 
0.000429538      2.92329     -106.699 
0.000735235      1.56205     -103.325 
0.000504023      11.0264     -118.610 
-0.000278619      0.00000      0.00000 
-0.000342636      3.34281     -111.038 
0.000643179      3.64966     -117.408 
-9.73370e-05     0.888144     -97.7652 
0.000340133      4.13473     -102.288 
-0.000173461      1.18929     -109.654 
-0.000121087      3.25650     -117.824 
-0.000472371     0.291204      74.0546 
-0.000192563      3.23802     -117.198 
-0.000351964      10.0744     -115.141 
8.17796e-05      10.3576     -116.862 
-0.000219099      1.43388     -120.141 
0.000351852      10.4114     -116.959 
-2.20633e-05     0.848528     -98.1301 
0.000377699      3.56180     -122.619 
-0.000135698     0.843801     -95.4403 
-0.000105338    0.0400000      90.0000 
-0.000115715      1.45602     -110.925 
-6.16383e-05      10.7619     -119.137 
0.000375959      2.83746     -111.501 
-0.000358232      10.0382     -115.238 
-0.000114951      10.4658     -111.761 
-0.000553262      3.35738     -111.675 
-0.000247063      10.7814     -119.323 
-3.73070e-05     0.930376     -115.463 
-0.000389205      3.20250     -117.525 
-0.000342297    0.0400000      180.000 
0.000264980      2.96162     -106.477 
-0.000258069      10.3786     -112.909 
0.000399428      4.34751     -115.622 
0.000318040      10.3039     -116.764 
-0.000269844      10.8163     -119.219 
-0.000237566      10.4807     -111.964 
0.000163628      10.9878     -112.925 
0.000112690      3.52817     -122.969 
-0.000184826      1.47078     -112.380 
-9.22991e-05      1.17644     -107.819 
0.000123191      2.84675     -107.162 
0.000151940      4.09566     -102.407 
-0.000168932     0.906863     -131.424 
-0.000151717     0.200000      143.130 
-0.000228380      4.11825     -114.075 
0.000196269      10.4652     -117.055 
0.000121152      11.2520     -116.383 
-0.000120866      3.24099     -114.034 
-0.000165898      3.77020     -107.281 
-1.61866e-05     0.200000      126.870 
-1.58442e-05      1.20333     -105.422 
-1.57412e-05     0.840952     -92.7263 
5.76202e-05      10.9563     -111.413 
7.21196e-05      10.7332     -111.881 
0.000114562      1.52315     -103.671 
4.23831e-05      10.9723     -112.732 
-7.06428e-05      1.64195     -124.077 
-4.22904e-05      3.80757     -99.0665 
-2.83369e-05      3.44651     -111.801 
1.39916e-05      2.88278     -119.055 
-1.38282e-05      3.46156     -112.416 
