! Center RA: 04 23 15.80073,  Dec: -01 20 33.06555 (2000.0)
! Tentative model.
! Flux (Jy) Radius (mas)  Theta (deg)  Major FWHM (mas)  Axial ratio   Phi (deg) T \
! Freq (Hz)     SpecIndex
-0.00291951    0.0565685      135.000 
-0.00404215    0.0894427      116.565 
-0.00242957    0.0894427      153.435 
0.000567552      1.04995      130.365 
-0.00149923    0.0800000      90.0000 
-0.00170121      1.17644      162.181 
0.00175496      3.30938     -172.360 
0.000576860     0.659697      104.036 
0.000791744      1.10635      130.601 
-0.000452649      1.72186      149.265 
0.000642124      2.61228     -168.518 
-0.000443041      2.55562     -140.080 
-0.00124391      1.34462     -149.621 
-0.00134597      2.86775     -149.859 
0.000844170     0.624820      140.194 
0.000755751      4.32296      177.879 
-0.000283013      1.59850      148.299 
0.000339973      2.60461     -169.380 
0.000735615      5.16759     -176.894 
-0.000648658      2.52127     -138.215 
3.51861e-05      3.76085     -178.781 
-0.000180515      1.56461      147.529 
7.75947e-05      3.76191     -178.172 
-9.54697e-05     0.572713      155.225 
0.000278357      2.62968     -153.825 
9.80415e-05     0.708802      106.390 
0.000319672      2.56281     -177.316 
0.000932952     0.835225     -163.301 
0.000152304      1.13278      132.138 
-0.000491369      1.50944      147.995 
-0.000217173      2.59260     -141.892 
-0.000120882     0.944034     -143.616 
0.000400809      2.29085     -167.905 
6.01334e-05     0.698570      103.241 
0.000445369     0.930376     -154.537 
-0.000200513      1.92042      178.807 
-0.00116608      1.83521     -163.540 
0.000339238      2.56531     -169.216 
0.000328410     0.747262      105.524 
0.000629482      2.54118     -151.821 
-0.000252940     0.912140     -142.125 
0.000216519      1.10345      133.531 
-0.000549878      1.96041      178.831 
-0.000152016      1.00000      180.000 
0.000671752      2.47645     -148.878 
-0.000544802      4.28019     -179.465 
-0.000148445     0.200000     -36.8699 
-0.000633934    0.0894427      63.4349 
2.61349e-05      1.19331      129.560 
0.000147598      5.16991     -176.451 
0.000615828     0.737564      102.529 
2.58755e-05      2.44229     -148.392 
0.000484017      1.34164     -169.695 
0.000238401     0.861626      111.801 
0.000159746      3.47908     -160.523 
0.000888665      2.60277     -177.357 
2.46008e-05      2.30339     -159.677 
-0.000329806      1.21458      162.759 
-0.000370871     0.960000      180.000 
0.000442128      3.31059     -154.983 
-0.000627190      2.28876     -174.987 
0.000661642      5.12765     -176.870 
8.26586e-05      3.54265     -154.592 
-0.000411567      2.62420     -142.431 
7.80635e-05      2.25211     -160.278 
-8.43426e-05     0.169706     -45.0000 
0.000795631      3.67151      172.488 
0.000574913      5.08567     -172.316 
-0.000269805     0.937230     -140.194 
0.000230474      2.52602     -169.046 
0.000544557      4.62930     -173.550 
0.000285706      1.27059      151.821 
-0.000335472      3.05182     -169.426 
9.61447e-05      1.13137      135.000 
9.63279e-05      1.93494     -172.875 
3.96703e-05      2.42157     -157.671 
0.000398334      4.01278      175.426 
0.000161969      1.94031     -171.703 
0.000146001      3.46595     -161.147 
0.000457881      1.30231     -169.380 
-0.000148993      1.12712     -152.526 
-0.000164426      1.87489     -146.310 
0.000134563     0.894427     -153.435 
-0.000178509      2.76116     -141.470 
-0.000364268      1.96163      177.663 
-3.73396e-05     0.144222     -56.3099 
5.25473e-05      2.45862     -158.025 
0.000181829     0.873613     -164.055 
0.000429069      1.13137      171.870 
-0.000206138      4.28075     -178.929 
0.000349587      1.48000     -161.075 
-5.33313e-05      4.72610     -177.089 
-0.000168826     0.169706     -135.000 
0.000245952     0.561427     -175.914 
-8.63802e-05      3.84333      177.614 
0.000213268     0.243310      99.4623 
-0.000259798      1.24193      165.069 
-1.71928e-05      4.12311     -177.776 
0.000165043      1.16000      136.397 
-0.000166389      2.79256     -141.981 
-0.000303886      4.16308     -177.797 
-0.000210431      4.68615     -177.064 
-0.000218426      3.80337      177.589 
-0.000239886     0.144222     -123.690 
0.000111318      3.50383     -161.358 
0.000225689      1.30599      152.650 
-0.000311266     0.960833      177.614 
-4.69929e-05      2.24571     -175.914 
-0.000146470      5.04063      179.091 
-0.000145098      1.09252      156.251 
0.000132870      3.34592     -152.210 
5.88462e-05      5.16248     -178.224 
-0.000129885      4.45457      175.365 
-0.000115525      2.83210     -143.616 
0.000114485      4.44072      172.235 
-7.33482e-05      3.40376     -177.306 
-5.77438e-05      3.80189      178.191 
0.000128203      1.19331     -166.430 
0.000113776      1.48000      161.075 
-9.94233e-05      4.34088     -163.402 
8.49135e-05      4.24396     -168.584 
-0.000141113      3.48827      176.055 
0.000126493      3.55550     -162.992 
0.000210580      3.66650      173.108 
5.59984e-05      1.94031      171.703 
-4.25874e-05      3.01251     -169.287 
-5.51341e-05      3.44372     -177.337 
-2.76720e-05      1.73851      156.975 
-4.12762e-05      2.28561     -175.986 
-2.74510e-05      3.09864     -168.835 
2.73190e-05      2.50599     -151.390 
-1.36079e-05      4.24019     -179.459 
1.35318e-05      1.15447     -165.964 
1.34732e-05      2.46349     -147.600 
1.34408e-05      1.00000     -163.740 
