! Center RA: 04 33 11.09553,  Dec: +05 21 15.61921 (2000.0)
! Tentative model.
! Flux (Jy) Radius (mas)  Theta (deg)  Major FWHM (mas)  Axial ratio   Phi (deg) T \
! Freq (Hz)     SpecIndex
-0.00254053      1.21458     -107.241 
-0.00179671      1.26491     -108.435 
-0.00162848      1.22703     -109.026 
-0.000393448     0.863481     -103.392 
-0.000425124     0.855102     -100.784 
0.000463433     0.377359     -122.005 
-0.00209819     0.329848      75.9638 
0.00194279     0.203961     -78.6901 
-0.00200637     0.226274      135.000 
-0.00128473      1.02528     -110.556 
0.00173557     0.400000     -126.870 
-0.000226605     0.803990     -95.7106 
-0.000151251     0.800999     -92.8624 
-0.000549113     0.203961      11.3099 
-0.000258509      1.41873     -111.501 
-0.00131106     0.800000     -90.0000 
0.000823923      10.1373     -113.733 
0.000379675      2.90875     -121.504 
0.000622575      2.87472     -121.921 
-0.000345024      1.45602     -110.925 
-0.000410519      10.0192     -115.542 
-0.000620574     0.164924      14.0362 
-0.000954559      4.13783     -106.858 
-9.53636e-05     0.873613     -105.945 
6.55399e-05      10.1465     -111.508 
6.69089e-05      3.64966     -117.408 
-0.00100213      9.98311     -115.641 
0.000347702      3.61419     -117.699 
0.000167900      10.1838     -111.425 
0.000661051      10.9787     -112.267 
-0.000279561      1.50785     -111.801 
0.000502066      3.69237     -112.954 
-0.000251161      10.7039     -118.576 
-0.000115006      4.00000     -106.260 
-7.68187e-05     0.923472     -107.650 
0.000273888      10.9417     -112.346 
0.000362790      3.44581     -99.3530 
-0.000150168      3.95049     -105.866 
-5.12576e-05     0.974064     -109.179 
-0.000385721      11.2024     -118.121 
-0.000915725      3.32866     -110.395 
-0.000895513      10.1447     -115.454 
0.000413529      3.59578     -117.135 
0.000590741      10.1213     -113.526 
-4.48764e-05      11.1129     -118.133 
4.74239e-05      2.94292     -121.097 
0.000195347      3.72022     -106.876 
-0.000580162      3.92020     -98.2128 
0.000166857     0.200000     -53.1301 
0.000107722      2.95703     -120.033 
0.000158013      3.50634     -117.150 
-0.000154165     0.885438     -108.435 
0.000216956      3.40635     -99.4623 
0.000122664     0.243310     -99.4623 
-0.000415891     0.544059     -107.103 
-0.000146123      10.7582     -118.661 
0.000362188     0.425206     -131.186 
0.000316301      2.93721     -119.358 
0.000535445      3.30841     -104.708 
-5.64736e-05      1.27812     -110.136 
-0.000197835      4.01138     -106.809 
0.000247110      10.8765     -116.188 
-0.000148723      10.6002     -114.050 
-0.000123783      1.16482     -105.945 
0.000165886      3.77465     -99.7618 
0.000106151      10.0686     -113.408 
-0.000151487      10.4901     -118.715 
0.000230232     0.144222     -56.3099 
-0.000250656      10.5637     -114.139 
0.000148653     0.252982     -108.435 
1.81106e-05      3.73202     -107.464 
-4.88521e-05      1.07703     -111.801 
-8.54569e-05      3.11512     -114.261 
5.05801e-05      3.78164     -100.359 
-7.87186e-05      4.02890     -114.020 
1.68391e-05      3.79473     -108.435 
-0.000109625      4.16481     -106.172 
0.000203580      3.82832     -100.840 
-7.88878e-05     0.280000      0.00000 
-4.72838e-05      11.0588     -118.048 
-1.66745e-05      3.97613     -113.728 
6.33340e-05      3.52817     -122.969 
-0.000108365      3.09890     -113.587 
6.09265e-05      11.0157     -112.188 
-6.07407e-05      10.6166     -114.247 
-1.56889e-05     0.936376     -109.983 
-4.53829e-05      1.49345     -110.376 
3.03997e-05      10.0528     -113.199 
-1.55190e-05     0.126491      18.4349 
-3.02751e-05     0.898888     -110.854 
1.51423e-05      3.42905     -106.955 
-4.47358e-05     0.200000      143.130 
2.97196e-05      9.96072     -111.930 
1.50571e-05      10.9124     -116.095 
1.49637e-05      3.54040     -122.074 
2.94194e-05      10.9300     -116.284 
1.47074e-05      3.48368     -105.313 
1.46744e-05      3.50657     -122.421 
