! Center RA: 22 02 43.29137,  Dec: +42 16 39.97987 (2000.0)
! Tentative model.
! Flux (Jy) Radius (mas)  Theta (deg)  Major FWHM (mas)  Axial ratio   Phi (deg) T \
! Freq (Hz)     SpecIndex
 0.0532933     0.126491     -161.565 
 0.0162969    0.0800000      180.000 
0.00110003     0.120000      180.000 
0.00521416     0.282843     -171.870 
0.00719773     0.322490     -172.875 
0.00549182    0.0894427     -153.435 
0.00684183     0.368782     -167.471 
0.00946905    0.0565685     -135.000 
0.00501247     0.362215     -173.660 
0.00819812     0.407922     -168.690 
0.00257347    0.0400000      180.000 
0.00602275    0.0400000     -90.0000 
0.00215532     0.447214     -169.695 
0.000598464     0.441814     -174.806 
0.00142349     0.481664     -175.236 
0.00107848     0.160000      180.000 
0.00123814      1.44056     -178.409 
0.000851776     0.486621     -170.538 
0.000820170     0.521536     -175.601 
0.000432122      1.48054     -178.452 
0.000125707      1.52053     -178.493 
0.00136905    0.0565685     -45.0000 
0.000373463      1.56051     -178.531 
-0.00252349     0.312410     -140.194 
0.000663765      1.40057     -178.363 
0.000725497      2.00360     -176.566 
-0.000436629     0.282843     -135.000 
0.000892034      1.36821     -164.745 
0.000899444      3.41503     -174.623 
0.000834092      1.80178     -177.455 
0.000514800      3.16000      180.000 
0.000866409      3.24222     -177.879 
0.000544715      2.04353     -176.634 
0.000643138      3.73374     -175.083 
-0.000697001      6.54058     -162.562 
0.000327480      1.60050     -178.568 
-0.000987209      9.00578      168.990 
0.00125476      7.03147      149.204 
0.000128859      2.25175     -167.692 
-0.000801136      7.08090      173.839 
-0.000204644      2.85237      165.379 
0.000874505      4.51593     -147.295 
-0.000313041      5.89196      167.851 
-0.000566828      2.82418      164.389 
0.000844721      6.01132     -163.374 
0.000531676      1.36235     -176.634 
-0.000116974      2.78568      164.168 
0.000600617      3.97291     -147.750 
0.000698434      8.51361      160.799 
0.000820791      2.24357     -168.690 
-0.000396932      7.09907      175.799 
3.97061e-05     0.561427     -175.914 
0.00102568      7.83520      153.304 
3.70783e-05     0.641249     -176.424 
-0.00108696     0.930376     -154.537 
0.000207109     0.720000      180.000 
-0.000894015     0.322490      29.7449 
-0.00116878      6.59078     -162.335 
-0.000588671      4.79099     -157.932 
-0.000509332      7.39091      157.738 
0.000103354      6.75846     -173.884 
0.000301081      5.40059     -179.151 
0.000189871      2.40033      179.045 
0.000964893      4.51486     -172.875 
-5.69749e-05      5.92284      168.311 
-0.000526163      8.07534     -170.304 
-0.000451289      5.73564      167.515 
0.000246777      3.74422     -161.952 
6.53496e-05      1.32242     -176.532 
-0.000791010      8.44294      167.412 
3.31256e-05     0.560000      180.000 
0.000301076      6.71869     -173.848 
0.000938802      5.60514      177.546 
0.000344375      7.43882      171.652 
-0.000445379      6.01890      171.978 
0.000390011      9.54426      156.013 
-0.000298258     0.768375     -128.660 
-0.000207849      5.96201      168.389 
0.000624503      2.44131      178.122 
0.00121459     0.520000      180.000 
9.26877e-05      6.08842     -176.987 
0.000432556      8.48915      160.455 
0.00130628     0.760000      180.000 
6.32162e-05      4.97691      151.169 
-0.000621280      7.44387      178.152 
0.000469696      3.96989     -175.956 
-0.000562129      7.13896      175.823 
0.00112187      5.01199      151.390 
-0.000552182      7.62732      167.276 
0.000638450      6.78091      154.493 
0.000308322      1.20599     -174.289 
0.000244912      6.09065     -176.611 
0.000134472      5.36060     -179.145 
0.000137390      3.63186     -172.405 
-0.000679861     0.699714     -149.036 
0.000492097      7.42342     -164.691 
0.000332948      6.10966     -171.339 
-0.000395642      7.36174      178.755 
8.43912e-05      7.31661      153.015 
-0.000170481      7.04557      173.480 
0.000159988      6.79412     -169.484 
0.000471772      8.83955      154.826 
0.000501140      7.88923      173.596 
0.000224528      6.90101      158.939 
0.000100452      5.92122     -178.839 
5.36393e-05      3.77465     -152.892 
0.000199957      7.33485      152.736 
0.000506822      3.78227     -162.140 
-0.000208916      7.76134     -174.084 
0.000570189      6.75432     -174.222 
0.000104639      6.66513      166.464 
-5.21824e-05      6.66705      174.837 
-0.000435386      7.27186     -174.634 
0.000590004      8.98888      175.406 
-7.44461e-05      7.75732     -174.378 
-0.000223040      6.03258      168.914 
0.000194936      6.19484      158.405 
-0.000196761      6.51988      173.660 
-0.000465994      4.61268     -158.106 
-5.08580e-05      5.69660      167.428 
-0.000978195      7.35391      157.620 
0.000372440      2.92684     -176.082 
0.000258593      3.38892     -149.500 
0.000715975      2.91781     -146.746 
0.000450518      5.74359     -174.806 
-5.04714e-05      8.11478     -170.352 
0.000406719      7.00594      164.774 
-0.000429514      5.35059      161.701 
-0.000116525      7.08531      173.517 
0.000157269      2.04783     -167.593 
0.000341397      7.38257      150.101 
0.000353300      3.96081     -146.952 
0.000323750     0.243310     -170.538 
-0.000203724      2.86273      164.604 
0.000420173      8.55102      153.914 
-0.000316428      5.76347     -155.391 
0.000560667      6.62625      166.383 
0.000135418      3.59221     -172.321 
-0.000283550      8.14764     -170.676 
-0.000420374      2.55625     -159.864 
0.000136127      6.06116     -163.120 
-0.000183656      5.26300     -160.463 
0.000452846      2.44033      179.061 
7.01359e-05      8.08040     -179.433 
0.000678553      6.02289     -163.009 
-0.000185025      8.26104     -169.397 
0.000445544      3.28000      167.320 
-0.000259588      5.70544      167.035 
0.000170910      6.75479     -169.422 
0.000281978      4.93429     -168.781 
-9.11124e-05     0.226274     -135.000 
8.64924e-05      7.15542      153.435 
0.000106570      6.63675      153.126 
0.000114229      3.16025     -179.275 
0.000334758      6.56195     -178.603 
-0.000739189      3.89995     -158.962 
0.000421375      2.38730      171.327 
-6.45155e-05      2.62084     -164.055 
-0.000156222      5.55539      163.261 
-0.000204465      3.04631     -156.801 
0.000401861      9.50772      155.915 
0.000576396      7.11528     -164.010 
0.000318708      8.08010     -179.716 
0.000234167      6.87826      158.508 
-2.20072e-05      4.55456      172.937 
-0.000100476      5.24412     -158.523 
0.000293076      8.15843      154.440 
-2.16657e-05      8.24670      169.944 
-0.000347279     0.793977     -130.914 
-8.21280e-05      2.98744     -153.778 
0.000134674      6.16597     -168.398 
0.000253557      1.12285     -175.914 
-0.000141479      6.67077      174.495 
-0.000511593      4.55965      172.439 
-0.000461285      8.23981      170.218 
0.000350860      3.35452     -149.153 
-0.000107299      2.61013     -164.899 
0.000153260      6.14921     -171.396 
0.000190462      7.42633      160.491 
-0.000116765      5.15302     -152.241 
0.000245807      9.05803      162.525 
5.99473e-05      3.36880     -150.086 
0.000275611      4.90306     -154.898 
-7.65586e-05      7.75350     -174.672 
-5.99528e-05      9.20869      161.250 
-0.000233055      2.88444     -160.560 
-0.000197963      8.25600     -165.694 
-0.000274504      3.69757      174.413 
0.000274645      8.85438      161.565 
0.000469574      3.59778     -171.690 
0.000156939      8.16794     -177.474 
0.000311829      5.40725      177.032 
-0.000155457     0.256125     -141.340 
2.00941e-05      6.95874     -169.401 
-0.000325600      2.90131      164.814 
0.000297108      7.84948      173.563 
-0.000629752     0.288444      33.6901 
-0.000319849      7.58831      167.209 
1.98889e-05      7.00548     -169.139 
-0.000346149      9.30763      164.291 
-0.000197561      7.93100      161.474 
0.000186474      5.92054     -179.226 
-0.000197041      5.43323      149.470 
0.000488460      7.04477     -169.200 
0.000189156      3.40353     -150.422 
-0.000331003     0.973242      170.538 
3.66585e-05      1.24579     -174.472 
0.000364169      3.24099      167.164 
0.000484322      4.97353     -168.871 
0.000183281      2.00878     -167.347 
-5.39177e-05      6.22832      171.506 
-9.04282e-05      6.76036     -159.206 
-0.000143671      3.65776      174.352 
-7.16295e-05      6.00120      168.465 
-0.000142851      6.45105     -170.362 
0.000302226      9.13621      158.152 
-0.000259200      4.16346      171.714 
0.000204151      6.13058     -176.634 
3.70877e-05      5.84123     -164.917 
0.000219905      5.90877      160.216 
-0.000140088      9.24658      161.330 
0.000160925      1.37928     -163.142 
0.000368609      3.73202     -162.536 
0.000155526      6.07289     -160.372 
-0.000342694     0.379473      161.565 
0.000104063      4.79483     -160.507 
-0.000476225      5.20692     -158.362 
-0.000115773      7.20322      163.880 
-0.000188708      2.95161     -153.435 
1.83544e-05      5.80386      156.438 
1.82512e-05      6.65492      152.819 
0.000212507      7.17351      153.864 
0.000104424      3.24197     -170.770 
0.000312353      7.38485     -164.609 
-0.000325080     0.966644     -155.556 
8.22087e-05      8.04637     -177.721 
-0.000247529      5.97930      171.924 
0.000326358      4.55544     -163.156 
-0.000304180      3.08312     -157.094 
6.23791e-05      4.36165     -168.896 
-0.000210842      5.06360     -152.220 
0.000298165      6.40312     -165.530 
-0.000217110      3.82267     -166.691 
-0.000365742      8.15814      152.555 
-0.000542020      5.72713     -155.225 
-0.000329435      4.68683      153.654 
0.000141894      6.97573      159.175 
0.000230937      7.41728      150.255 
-0.000223658      3.56180     -147.381 
0.000191272      5.80262     -164.814 
-0.000110983      7.96894      161.565 
-0.000369427      7.17607      163.484 
0.000152194      5.52898      154.733 
0.000160026      5.40296      160.089 
0.000367500      6.40525     -173.186 
8.96407e-05      6.67329      152.513 
9.91634e-05      6.18876     -171.451 
-1.72044e-05      7.71005     -174.940 
0.000274493      5.47401      153.060 
0.000118304    0.0894427     -63.4349 
-0.000467217     0.344093     -144.462 
0.000248551      7.38864      160.388 
0.000211592      5.19954      172.930 
7.22175e-05      2.24321      176.934 
0.000317100      7.20100     -179.045 
3.26098e-05      7.46126      152.199 
0.000400027      9.04610      162.767 
-6.49453e-05      5.48802      149.323 
7.50234e-05      4.38634     -173.718 
0.000155199      6.16169     -160.271 
-0.000293666      3.34281     -158.962 
-0.000233651      6.72298     -159.085 
0.000261062      2.92000      180.000 
0.000167066      8.91650      166.774 
0.000293228      4.88410     -154.274 
-1.65479e-05      4.95758     -165.515 
0.000245329      4.90763      173.918 
0.000142131      7.49667      152.341 
0.000248339      5.14058      159.027 
0.000172276      6.61876      153.435 
-0.000327963      6.41847     -169.951 
1.63840e-05      1.28561     -174.644 
5.83817e-05      8.87694      165.651 
0.000383539      9.02016      173.379 
0.000267518      3.28146     -170.882 
-3.14867e-05      3.14859     -152.784 
0.000104887      6.57389     -168.417 
-4.53618e-05      6.48950      172.919 
-0.000324217      8.68884      173.922 
0.000151426      8.89233      161.647 
-0.000225335      7.48385      178.162 
0.000192858      4.15769      168.906 
-0.000133513      2.57029     -159.027 
-0.000202640      4.94773     -165.964 
0.000169868      7.95920      171.911 
-0.000255736      4.85337      156.181 
-0.000238700      4.76823      176.634 
0.000426488      4.74384     -160.801 
-6.06838e-05      5.24976     -160.875 
0.000280101      8.79136      161.153 
-1.59081e-05     0.644981     -150.255 
-0.000433247      1.46697      168.996 
7.20203e-05      6.57875      160.463 
-1.58220e-05     0.974064     -160.821 
8.12259e-05      4.94514     -170.690 
0.000200439      8.12236      154.318 
-0.000273781      2.89109      165.579 
-0.000208226      9.23385      161.565 
-0.000196622      8.23748     -165.087 
-0.000134388      7.80666      158.035 
0.000208409      4.40073     -178.958 
-0.000313503      4.81332     -158.552 
-0.000146237      1.01193     -161.565 
0.000314287      6.22832     -171.506 
-0.000283358      8.02925     -170.538 
7.07371e-05      7.13089     -169.005 
-0.000164256      5.46772      149.683 
0.000235762      4.47518     -172.811 
-4.44558e-05      6.06116      163.120 
3.03624e-05      5.52319     -167.876 
-0.000107845      7.14524      147.111 
0.000172313      8.26182      156.911 
-8.34929e-05      7.71368     -174.644 
2.94843e-05      1.25028     -172.648 
-0.000142643      5.12250     -165.530 
5.39781e-05      6.23205      158.540 
0.000140499      6.96735      164.687 
0.000265166      3.43837     -150.751 
-2.94414e-05      7.81404      167.885 
0.000126616      5.04143     -178.636 
-0.000355837      5.57738      175.475 
-0.000219203      7.69259      176.721 
-0.000259554      4.87360     -163.796 
1.48535e-05      1.35823     -166.373 
0.000259178      5.53173     -167.471 
7.60722e-05      8.95545      166.833 
-0.000158848      7.22186      156.843 
-0.000268479      7.32175      178.748 
-0.000282648      1.69706     -171.870 
-0.000107364      8.88576      159.444 
-0.000109919      6.96563      166.044 
-0.000185854      8.92323      159.534 
2.82357e-05      8.08485      178.015 
-0.000150057      7.50989     -170.186 
-0.000161624      5.52246      149.534 
0.000202877      7.53923      164.932 
0.000162329      1.34937     -168.024 
-5.01821e-05      3.29848     -165.964 
0.000265646      6.19935     -160.396 
0.000113335      2.96432     -176.906 
5.35373e-05      5.83191     -162.435 
-5.04256e-05      5.05157     -159.125 
0.000137065      8.11063      155.837 
-5.41122e-05      3.93914      170.059 
0.000211764      7.01313      159.291 
-0.000199493      3.59555     -147.724 
-0.000150399      5.91919      173.403 
-0.000114160      7.10921      160.953 
-0.000101031      7.77493      167.823 
0.000192066      8.78153      167.103 
0.000144379      5.17131      165.211 
-5.13570e-05      6.07289      162.759 
5.13555e-05      5.52941      160.123 
-5.27438e-05      7.76958      157.925 
0.000142074      7.65517     -165.165 
-0.000156765      7.02920     -174.776 
-9.86101e-05      4.59791     -158.569 
0.000137706      4.94740      173.967 
-1.35603e-05      6.41523      172.476 
-0.000206673      3.00533     -170.036 
6.23550e-05      6.61308     -168.486 
0.000111214      4.51717     -163.009 
-0.000108916      5.16140      162.408 
0.000198218      8.19131     -167.593 
0.000169999      5.46494      171.158 
0.000121267      7.51702      163.301 
0.000143132      8.08633      177.732 
-0.000154470      2.60768     -159.341 
2.59859e-05      6.97148     -176.711 
6.18356e-05      7.37184      170.947 
9.79236e-05      6.52110     -178.946 
0.000131634      5.08142     -178.647 
0.000119353      5.61726     -171.812 
-0.000190926      1.13137      171.870 
0.000108888      7.08407     -169.261 
-3.68172e-05      6.30175      171.973 
3.83547e-05      7.40259      149.833 
-9.83492e-05      6.70904     -171.773 
9.46982e-05      8.41579      157.946 
9.53789e-05      1.08296     -175.764 
-0.000190492      8.27613     -165.158 
8.37718e-05      9.48768      160.801 
2.55016e-05      5.16496      172.435 
7.18025e-05      4.31481     -169.315 
-8.34136e-05      3.09890     -156.413 
-0.000131350      8.12266      152.425 
-7.20104e-05      8.96652      168.941 
1.27480e-05      9.17257      162.750 
-0.000164409      6.92682      165.964 
9.53285e-05      8.00640     -177.709 
-1.27153e-05      6.45489      172.523 
0.000129768      5.40533      177.455 
2.46465e-05      6.59697      165.964 
-2.48322e-05      5.27894     -173.037 
9.39020e-05      7.05374     -176.424 
0.000141614      8.54260      171.111 
0.000210963      5.16124      165.641 
0.000174234      9.02485      173.127 
0.000106613      4.85732      149.845 
4.75759e-05      7.16101     -179.040 
6.00885e-05      7.88487      173.884 
7.18244e-05      6.73712     -175.914 
-1.25386e-05      4.77611     -158.377 
8.24185e-05      9.21078      162.824 
-0.000116488      3.92020      179.415 
-5.87735e-05      7.98599     -169.028 
-5.89601e-05      3.97854      170.159 
0.000104603      2.40133      178.091 
9.41480e-05      7.43720      149.988 
5.97579e-05      4.88623     -155.323 
0.000104638      8.60512      163.250 
3.64200e-05      4.45457      175.365 
1.22885e-05      7.13762      153.722 
4.65487e-05      7.36663     -169.361 
-3.61775e-05      8.10175      170.910 
-9.27645e-05      7.88091     -179.128 
-5.79647e-05      3.77465     -167.142 
-1.22265e-05      3.11307     -152.447 
-9.29885e-05      9.26913      164.224 
4.69626e-05      6.86428      168.232 
0.000104603      4.90175      152.808 
4.62643e-05      7.99880      171.951 
0.000115439      6.36704     -159.402 
4.63339e-05      5.15984      172.875 
0.000102572      8.82052      167.161 
4.69625e-05      7.12000      154.011 
9.18075e-05      9.06104      163.325 
6.93013e-05      5.79227     -165.196 
6.98037e-05      3.32746     -170.311 
0.000103021      7.69384     -165.241 
-2.32533e-05      7.67385     -174.616 
-6.87219e-05      5.89644      175.721 
9.18206e-05      4.41470      175.323 
-5.72159e-05      7.25865      156.967 
9.08953e-05      7.18988     -172.005 
4.54353e-05      7.07684     -163.921 
-4.55767e-05     0.820731     -133.025 
-4.59941e-05      8.14764      170.676 
-3.46073e-05      7.07141      160.848 
5.70040e-05      7.10256      154.301 
-2.27324e-05      5.23924     -172.983 
2.31885e-05      7.41555     -176.289 
-7.88810e-05      2.61503     -173.853 
-2.28429e-05      3.58508      169.066 
-4.47575e-05      8.10817      170.631 
-5.65771e-05      6.80000     -171.203 
-1.15973e-05      4.56070     -158.385 
-1.15559e-05      8.18711     -170.722 
5.64871e-05      3.37378     -169.756 
-3.37938e-05      4.96145      178.614 
-4.49458e-05      1.12925     -157.068 
1.15200e-05      6.41411      162.582 
-2.24077e-05      7.51457     -174.502 
-4.48799e-05      4.83256     -173.346 
4.49779e-05      4.90616     -155.943 
6.71629e-05      8.20000     -167.320 
4.47266e-05      2.60461     -169.380 
-4.48688e-05      6.94493      160.835 
2.24876e-05      5.96054     -179.231 
-3.34749e-05      7.49805      176.023 
-2.23275e-05      7.79179      158.308 
-2.23473e-05      5.11766     -152.033 
3.34274e-05      7.41307     -176.597 
-2.22375e-05      4.36953      168.381 
3.33876e-05      7.42892      168.509 
-3.35027e-05      6.74863     -171.822 
-2.21603e-05      4.93477     -163.034 
2.21799e-05      5.39570      164.521 
-2.21840e-05      5.15442      155.225 
2.21333e-05      7.20544      158.848 
-3.31486e-05      7.44301      154.537 
-3.31593e-05      3.86264     -158.749 
-1.11512e-05      5.74178      171.588 
1.11260e-05      5.70824      151.998 
-2.20478e-05      8.92726      168.891 
-1.11177e-05     0.933809      170.134 
1.10168e-05      6.72298     -169.024 
1.09807e-05      2.92027     -179.215 
-1.09691e-05      6.73736     -158.767 
1.09593e-05      5.43838      152.870 
1.09292e-05      9.47122      155.816 
1.09375e-05      8.89845      171.469 
-1.09251e-05      5.51710      163.142 
1.09286e-05      8.06702      158.779 
-1.09283e-05      3.07766      171.027 
