! Center RA: 08 54 48.87493,  Dec: +20 06 30.64078 (2000.0)
! Tentative model.
! Flux (Jy) Radius (mas)  Theta (deg)  Major FWHM (mas)  Axial ratio   Phi (deg) T \
! Freq (Hz)     SpecIndex
-0.0175278    0.0565685     -45.0000 
-0.0294676      0.00000      0.00000 
-0.0340980     0.425206     -48.8141 
-0.00564683     0.481664     -48.3665 
-0.000462193    0.0400000     -90.0000 
-0.00667026    0.0400000      180.000 
-0.000383156     0.395980     -45.0000 
-0.00110087     0.368782     -40.6013 
-0.00375464     0.400000     -36.8699 
0.00160214      1.48000     -90.0000 
-0.000436121     0.456070     -52.1250 
0.00179883      1.48054     -91.5482 
-0.00326697     0.512250     -51.3402 
0.000876182      1.52053     -88.4926 
0.000132224      1.48216     -93.0941 
6.22870e-05      1.48486     -94.6355 
0.000674017      1.52210     -86.9872 
0.000174615      1.48862     -96.1702 
-0.00110827     0.488262     -55.0080 
-0.00216847     0.304631     -156.801 
0.000111167      1.36059     -91.6847 
0.000613279      1.49345     -97.6961 
0.000793458      1.36000     -90.0000 
-0.000976256     0.322490     -150.255 
-0.000271712     0.572713     -65.2249 
-0.00194649    0.0894427     -26.5651 
0.000530934      1.52473     -85.4860 
-0.000324466     0.594643     -70.3462 
-0.000910353      1.93494     -97.1250 
0.000455098      1.49933     -99.2110 
0.00188953     0.126491      71.5651 
-0.000441937      1.94031     -98.2971 
-0.000212153     0.761052     -93.0128 
0.00125874     0.164924     -104.036 
0.00135618     0.304631     -113.199 
-0.000377809     0.721110     -93.1798 
-0.000502081     0.840000     -90.0000 
8.96032e-05      1.60050     -88.5679 
-0.000274470     0.344093     -54.4623 
-0.000190190     0.936376     -70.0169 
-0.000425732      1.56000     -67.3801 
0.000508391      1.64049     -88.6028 
-0.000100609     0.339411     -45.0000 
2.56268e-05      1.52840     -83.9910 
-7.01930e-05     0.974064     -70.8210 
0.000529661      1.69800     -105.018 
-0.000182604      1.19867     -115.710 
-0.000538967     0.950789     -67.7510 
-0.000408279     0.312410     -50.1944 
0.000850639     0.126491     -108.435 
0.000344311      1.84694     -107.650 
9.96005e-05      1.53310     -82.5041 
-0.000374002      1.67141     -68.9625 
0.000356562      1.52000     -90.0000 
-0.000155554     0.215407      158.199 
-0.000257978      1.21655     -117.408 
-0.000385025      1.20067     -88.0908 
-0.000195482      1.52315     -66.8014 
0.000498848      1.13208     -122.005 
8.67914e-05      1.36059     -88.3153 
-0.000103843      1.95346     -100.620 
-0.000161635     0.466476     -59.0362 
-0.000305428     0.288444     -56.3099 
-1.76192e-05      1.96000     -90.0000 
-0.000192211     0.282843      171.870 
-0.000144965      1.96041     -88.8309 
0.000243228      1.75864     -72.8015 
0.000343408     0.144222     -123.690 
-0.000295643      1.18119     -118.301 
0.000186112     0.632456     -18.4349 
-7.91410e-05      1.84391     -77.4712 
-9.23601e-05      1.96122     -101.768 
0.000123118      1.32000     -90.0000 
-6.16213e-05      1.93039     -95.9469 
0.000152614     0.776660     -55.4915 
-3.09645e-05     0.233238      149.036 
-0.000120797      1.79644     -78.4399 
-1.53091e-05     0.961665     -73.0725 
-7.41400e-05      1.73666     -118.926 
-5.97602e-05      1.99920     -109.885 
2.98795e-05     0.144222      33.6901 
0.000118021      1.74723     -74.0546 
2.91209e-05      1.38159     -112.109 
-2.91758e-05     0.610574     -121.608 
-1.45284e-05      1.96163     -87.6627 
