! Center RA: 22 02 43.29137,  Dec: +42 16 39.97987 (2000.0)
! Tentative model.
! Flux (Jy) Radius (mas)  Theta (deg)  Major FWHM (mas)  Axial ratio   Phi (deg) T \
! Freq (Hz)     SpecIndex
-0.0157099     0.243310     -170.538 
 0.0225957    0.0400000      0.00000 
-0.00698300     0.240000      180.000 
-0.0103448     0.203961     -168.690 
0.000421553    0.0565685      45.0000 
0.00457470     0.430813     -158.199 
0.00473879      0.00000      0.00000 
-0.000332301      1.36059     -178.315 
-0.000967123      1.36235     -176.634 
0.00239186    0.0400000      90.0000 
-0.00158501      1.40057     -178.363 
0.00126325     0.200000      36.8699 
0.000784335     0.411825     -150.945 
-0.00109749      8.32010      154.667 
-0.000386611      1.36528     -174.958 
-0.000283976      3.57972     -161.768 
-0.000863042      5.09823      153.435 
-0.000148384      3.40212     -177.979 
-0.000326670      7.69675      151.437 
-0.000660664      4.87229      167.675 
-0.000562084      3.16228      177.825 
-0.000584289      3.59244     -161.162 
0.000374474     0.707672     -132.709 
0.000350285      6.00613      164.946 
-0.000295659      1.67093     -168.959 
-0.00112486      3.44209     -178.002 
-0.000619582      1.49933     -170.789 
-0.000430716      7.64251      151.557 
0.00133204     0.456070     -164.745 
0.000199988      7.32830      173.418 
0.00186566      1.34104     -162.646 
0.000744416     0.967471     -172.875 
-0.000387249      6.28204     -178.541 
0.000798617      5.81116     -176.448 
0.000622805      5.96751      164.846 
0.000272700      7.96251     -178.561 
0.000695768      7.39135     -174.721 
-0.000613721      3.61773     -161.966 
-0.000525500      3.76191     -178.172 
-0.000235110      3.80505      167.863 
-0.000499402      7.01233      153.581 
-0.000107096      5.80000      170.473 
-0.00126368      6.29234     -157.184 
-0.00109503      3.57994      166.430 
-0.000937187      1.67905     -167.619 
-6.98071e-05      3.91449      168.805 
0.000333695      6.86568      169.934 
-0.000972785      6.28318     -178.176 
3.53969e-05      7.28857      173.382 
-0.000166813      3.81366      167.276 
-0.000356872      7.16045      155.583 
-0.000412571      5.42262      155.136 
0.000283717      8.24621     -177.776 
-0.000540760      7.98739      167.565 
0.000464242      6.71679     -161.241 
0.000305280      7.29328      173.070 
0.000193125      7.53891      161.757 
-0.000197513      5.83945      170.538 
-0.000111887      5.10952      170.538 
-0.000261789      3.76085     -178.781 
0.000123191      7.05238      168.881 
-0.000743252      8.01439      153.947 
0.000488210     0.678822     -135.000 
-0.000201889      2.84788     -150.555 
-0.000152194      3.96162      168.350 
0.000836073     0.927793     -172.569 
-0.000545902      3.28024      179.301 
0.000412202      1.11571     -165.466 
-0.000371360      5.10310      170.981 
0.000227837      5.60000      180.000 
0.000244112      6.05706     -169.729 
-3.14757e-05      1.40911     -173.480 
-0.000277195      7.17707      155.292 
-0.00102634      2.86775     -149.859 
-0.000208020      5.80675      170.083 
0.000330655      6.17414      168.035 
0.000546415      5.94508     -161.565 
-0.000906008      1.45382     -172.093 
-0.000302260      4.65824     -159.386 
-0.000251273      4.62203      156.541 
-0.000539175     0.164924     -14.0362 
0.000549516      6.67712      167.546 
0.000453003      7.06110      163.207 
0.000774095      7.55153      161.469 
-0.000654108      2.29120      163.780 
-0.000618711     0.362215      173.660 
0.000394551      7.78974      172.328 
0.000254068      7.20044      179.363 
-0.000101587      3.16405      177.101 
-0.000240581      2.17807     -172.614 
7.22132e-05      6.14101     -166.054 
-7.17577e-05      1.44056     -178.409 
-2.75508e-05      1.93080     -166.827 
-0.000194852      4.00080      168.465 
0.000243708      6.96609      173.405 
-5.39401e-05      3.39034     -160.710 
0.000120112      4.84264     -178.107 
-0.000219840      5.84616      170.151 
5.08194e-05      6.02501     -169.287 
-0.000188364      9.27250      155.536 
-5.23010e-05      1.97909     -165.964 
-0.000142225      3.81093     -159.092 
0.000178343      6.54364     -169.789 
0.000196016      8.44370      152.949 
0.000465413      6.05323     -176.211 
-0.000123043      4.40545     -159.261 
0.000251822      9.21677      165.421 
-0.000516528      2.09571     -166.759 
9.08470e-05      7.09163      168.944 
-0.000184937      9.13017      155.681 
-0.000465249      1.32000      180.000 
0.000522837      8.00250     -178.568 
4.91490e-05      7.58947      161.565 
-0.000206891      3.35261     -160.484 
0.000777546      8.10590      152.044 
-0.000132426      5.06249      153.232 
0.000453833      5.20753      176.918 
-0.000299177      2.85797     -173.571 
-0.000585827      7.03466      147.304 
-0.000831402      8.02646      167.626 
-0.000174015      5.29029      159.647 
0.000235078      5.85314     -169.765 
0.000507860      8.53314      152.954 
-0.000167003      5.25951      152.850 
-0.000157742      8.03512      167.347 
0.000178747      4.45457     -152.745 
-0.000148424      7.58831      151.679 
0.000351422      4.80000      180.000 
-0.000404990      7.16547      177.761 
-0.000413276      7.08011      149.813 
0.000783504      6.09065      176.611 
0.000585945      5.44132     -178.736 
6.93864e-05      5.05015     -176.367 
-0.000176047      5.77900      152.371 
-0.000109605      9.28913      155.311 
-0.000371907      7.34793      149.946 
-0.000250469      8.28396      154.549 
-0.000205613      4.83322      167.574 
0.000316266      7.60736      155.456 
-2.36393e-05     0.215407     -21.8014 
0.000130640      7.17886      175.846 
-0.000384533      3.02020     -168.541 
-0.000423335      4.68188     -160.017 
0.000438193      7.16011      179.680 
0.000137502      7.39557      164.310 
-0.000355600      3.36618     -159.842 
-0.000256012      9.44889      161.488 
-0.000742676     0.178885     -26.5651 
0.000764961      6.83064     -165.069 
-0.000238198      3.09477     -153.104 
0.000437617      6.72048      179.318 
-0.000424705      3.71656     -171.957 
0.000617480     0.377359     -147.995 
8.61448e-05      7.53796      176.044 
0.000254106      3.64878     -167.335 
-0.000232254      8.12325      160.137 
0.000189066      6.38160      157.132 
-0.000561683      4.41977     -158.776 
-0.000466575      3.30720     -147.848 
0.000350168      3.71849     -168.207 
-2.23196e-05      4.37776     -167.869 
0.000157543      6.87279      169.606 
-0.000264438      6.23076     -164.358 
0.000192501      7.65465     -170.981 
-0.000814425      7.21343      155.425 
-0.000244469      5.21168     -162.121 
-0.000307683      2.18358     -171.573 
0.000414992      8.38990      153.068 
0.000923738      2.42124     -172.405 
-0.000326482      5.63773      151.617 
0.000112125      6.39512     -167.355 
-0.000132171      8.64167      154.502 
-0.000173955      8.71229      172.614 
0.000585256      8.18134     -172.979 
-0.000282469      6.14934      174.401 
0.000483302      8.24476     -178.054 
0.000125628      5.73606     -171.983 
-0.000345854     0.809938      159.775 
-8.50640e-05      3.37520     -148.570 
0.000280275      5.81378     -176.055 
-0.000256140      4.38634     -167.358 
-0.000238942      6.14557      174.772 
-0.000171055      7.20544      177.773 
-0.000412993      4.00899      167.905 
-2.06808e-05      2.13841     -172.476 
-2.06646e-05      3.40940     -148.921 
-0.000450527     0.200000      180.000 
-0.000235219      7.80113     -166.961 
-0.000150160      6.88767     -168.951 
0.000246170      8.14666      162.277 
-0.000774541      9.31751      156.737 
-2.03457e-05      3.42345     -149.840 
-0.000245782      5.56360      153.988 
0.000599126      8.68884      173.922 
0.000234234      8.10175     -170.910 
-0.000557385      6.93467     -168.690 
0.000269182      7.53530      176.348 
-0.000310079      8.68028      160.062 
-0.000366933      3.45809     -150.173 
0.000145817      7.09941      163.301 
-0.000309241      9.48616      157.436 
-0.000310667      9.46167      161.259 
0.000433036      4.43639     -153.204 
-0.000426093      8.62684      175.479 
5.74563e-05      6.32923      157.324 
0.000396166      7.14199      175.503 
1.94219e-05      4.83735     -172.875 
0.000245470      9.17806      165.358 
-0.000101752      7.38257      150.101 
-0.000339090      6.01132     -159.756 
-5.48867e-05      2.83323     -149.452 
-5.53856e-05     0.772528      158.749 
0.000293463      4.43441      164.836 
0.000278619      5.18166     -164.784 
-0.000114601      3.28000      180.000 
0.000113295      2.60461      169.380 
0.000223313      7.25358      173.032 
0.000293651      4.79767     -172.816 
0.000278827      3.53836      174.161 
-5.34758e-05      6.97389     -168.755 
0.000216073      6.34476      156.991 
-0.000654103      4.46587      173.830 
0.000147088      7.61514     -170.933 
0.000167385      7.22772     -165.579 
0.000296382     0.417612     -163.301 
-9.60465e-05      5.76056      152.723 
0.000221425      3.38869     -172.539 
0.000303964      7.64377      155.581 
-0.000444023      6.19225     -164.258 
-0.000174997      9.23610      155.433 
0.000191739      5.01199     -151.390 
-0.000157720      5.25281      159.495 
-1.80404e-05      5.04460      153.638 
0.000132353      6.98089     -172.427 
-0.000563522      8.48462      155.489 
-0.000276184      7.84653      163.413 
3.44418e-05      5.08771     -176.845 
-0.000526365      7.79436      150.146 
-3.48141e-05      4.95629      154.676 
-0.000221488      8.04825      173.723 
0.000347283      6.46096     -175.384 
0.000392948      8.99822      159.712 
0.000596649      6.19781      156.413 
-0.000340999      4.97353     -154.259 
-0.000512563      5.19954      162.541 
-0.000351255      5.21076     -155.993 
-1.76418e-05     0.721110      160.560 
-0.000249569      8.26685      154.799 
0.000147774      6.06340      165.872 
0.000222605      2.56531      169.216 
-0.000345272      3.60555     -162.570 
0.000207430      3.70621     -145.109 
0.000322684      7.58240     -163.764 
-0.000134178     0.594643      160.346 
1.73080e-05      5.77387     -176.028 
0.000124843      7.26647     -165.658 
-0.000148864      4.19695     -157.590 
-0.000280191      5.74470     -160.051 
-0.000543370      2.13467     -167.005 
9.26096e-05      5.92891      164.745 
-0.000266169     0.758947      161.565 
0.000110557      7.10515      172.235 
-0.000134673      3.31059     -154.983 
-0.000345942      4.97353      154.259 
0.000110956      5.77678     -175.632 
1.65793e-05      7.40648      159.118 
-3.16045e-05      8.14371      167.807 
0.000124293      7.35706      164.226 
0.000333404      3.58240      173.589 
-0.000108642      2.88943     -158.051 
0.000281724      7.08802      163.610 
-0.000127041      2.22926      170.707 
0.000234950      8.28396     -168.582 
0.000317360      6.27694      165.610 
-0.000564852      8.24000      180.000 
0.000364667      6.72976     -160.919 
0.000205903      7.15475      168.062 
-0.000226126      6.60981      176.878 
-9.34824e-05      1.68808     -166.293 
0.000224424      3.47356     -144.846 
-0.000289957     0.357771     -26.5651 
-7.96724e-05      2.81965     -148.339 
-0.000158777      5.22961      158.931 
0.000216004      7.39232      159.408 
0.000174641      5.16558      177.337 
1.59372e-05      7.10211      175.478 
-0.000242670      3.84104      171.617 
-0.000313010      5.17363     -161.985 
-0.000161475      8.13535      168.082 
0.000161219      6.89231      151.204 
-0.000418974      7.27472     -171.781 
0.000127620      8.97472      159.384 
-0.000351824      6.18915      174.437 
0.000102757      5.09007     -176.396 
-0.000126452      1.40228     -176.730 
0.000472336      4.47303      164.970 
4.53098e-05      2.42685     -171.469 
-0.000163515      6.52343      170.826 
-1.53624e-05      1.94031     -165.677 
-6.73549e-05      7.02407      165.489 
-0.000396838      8.73155      159.905 
-9.68867e-05      7.04557      149.650 
0.000281243      6.98627     -172.102 
0.000138770      6.35610     -167.276 
-0.000371528      1.72696     -166.608 
-1.48626e-05      4.16000     -157.380 
-0.000185105      8.13693      159.873 
-0.000233989      7.12180     -178.713 
-0.000348067      6.13775     -159.794 
0.000273154      5.64836      164.389 
5.40764e-05      5.60014      179.591 
0.000145481      6.83345      169.545 
-0.000245098      7.00000     -163.740 
5.58911e-05      3.72924     -144.605 
-0.000166999      6.22832     -171.506 
-0.000114065      5.63205      173.884 
-9.85603e-05     0.680000      180.000 
0.000115218      8.10856      162.191 
-0.000128956      7.20711      177.455 
-5.21217e-05      4.94190      150.945 
-6.58476e-05      9.07163      154.678 
-0.000147474      4.42538     -167.471 
-0.000137910      9.31450      158.062 
-0.000375406      2.56000      180.000 
-0.000169856      6.27388     -171.198 
0.000210583      6.57912     -172.313 
0.000232443      3.60976     -167.196 
-9.63176e-05      6.92416      159.366 
-0.000178963     0.594643     -160.346 
0.000102312      7.86293      175.624 
-5.07364e-05      3.24099     -178.586 
0.000133353      6.95229     -171.730 
-0.000234066      3.49285     -150.499 
-0.000130693      3.29193     -152.501 
-6.65926e-05      2.30269      162.824 
-6.67975e-05      5.27394     -170.395 
-0.000135564      6.13514      162.156 
0.000101041      5.01677     -164.745 
-3.72404e-05      7.21687      148.601 
-0.000276126      5.86147     -167.386 
-0.000157425      8.67262      172.580 
-0.000181770      8.04398      174.006 
-3.66010e-05      7.85804      163.133 
2.58457e-05      9.30763      164.291 
-0.000123757      6.88674      159.249 
-2.65373e-05      5.97488      153.778 
8.47402e-05      7.62155     -170.637 
-4.68559e-05      2.60000      180.000 
0.000233908      3.39411     -171.870 
0.000269165      6.85729      151.043 
5.19811e-05      7.57279      176.669 
0.000208972      5.22027     -164.899 
-0.000175126      6.11791      153.602 
3.73330e-05      4.80283     -172.342 
-0.000129696      7.81025     -166.675 
0.000104725      2.68328      169.695 
-8.26579e-05      5.28076     -169.967 
0.000301029      4.66922      154.093 
-1.30586e-05      8.63481      156.523 
-6.07209e-05      3.44372     -177.337 
-0.000119508      3.34114     -148.213 
-9.67346e-05      7.36272      150.371 
0.000275293      7.94380      161.200 
-0.000172492     0.322490      172.875 
-0.000158598      5.64893     -167.735 
-5.84432e-05      6.64975      176.897 
0.000261263      7.38875      152.603 
0.000148750      4.29195      175.724 
0.000192846      6.72012      179.659 
0.000126989     0.651153     -137.490 
5.84291e-05      4.17555     -175.054 
0.000104488      6.96000      180.000 
1.26582e-05      6.96161      173.733 
-0.000168809      3.40588     -176.634 
-9.59352e-05      4.43423     -166.967 
-6.84731e-05      8.61422      156.173 
-7.94518e-05      1.90158     -165.379 
-2.35859e-05      5.87891      170.602 
0.000135748      8.35426      152.944 
-7.86741e-05      5.79614      152.904 
-5.91652e-05      9.33338      156.511 
0.000124165      7.22496     -168.503 
9.12577e-05      5.87278      155.879 
-4.79808e-05      7.79682      163.610 
-0.000100708      8.05034      154.072 
-0.000136504     0.796994      162.474 
-0.000258815      2.44524      164.827 
4.60855e-05      4.08020      179.438 
0.000134479      8.98888      159.146 
3.51201e-05      3.71053     -168.811 
4.77260e-05      4.60070      179.004 
0.000145080      1.84694     -175.030 
-6.91916e-05      6.80753      177.306 
0.000113021      7.61052      176.987 
-5.76779e-05      5.06597      158.703 
-6.95043e-05      5.26118     -171.254 
-8.79941e-05      7.80820      163.329 
0.000122838      7.00011      179.673 
-0.000111700      6.71059      151.907 
6.67190e-05      9.24164      163.918 
-1.20027e-05      7.62354      151.821 
-0.000101639      8.30094      159.993 
-3.37306e-05      4.90697      150.719 
0.000142775      7.70517     -172.543 
-4.46829e-05     0.861626      158.199 
-8.84825e-05      9.54149      159.894 
-5.51043e-05      7.07819      146.759 
-1.18740e-05      2.75187     -147.465 
2.29760e-05      8.08158      158.515 
0.000121679      6.04847      176.967 
-6.63555e-05      4.83322      151.314 
-6.62364e-05      5.46260     -156.251 
-6.65706e-05      3.48941     -154.904 
-8.76776e-05      3.31059     -151.887 
9.81308e-05      4.05423     -149.133 
4.42981e-05      1.90074      171.529 
-5.45682e-05      4.80600      177.138 
-5.38997e-05      7.64010      152.227 
-3.25323e-05      4.79416      167.471 
-4.37416e-05      9.03549      154.569 
-9.73582e-05      1.65215      173.047 
-0.000129622      4.47321     -167.082 
-5.44493e-05      3.72193     -178.152 
0.000139218      6.23448      156.560 
-1.13203e-05      3.95434      172.444 
7.59438e-05      4.64069      179.012 
2.15275e-05      1.08812     -162.897 
-5.39177e-05      4.79466     -154.290 
-8.55817e-05      7.32797      150.216 
8.61508e-05      2.51873      169.939 
6.46629e-05      7.10538      175.156 
-5.33417e-05      6.89545     -168.625 
2.14164e-05      7.00137      173.768 
1.10721e-05      7.66039      155.308 
-4.24664e-05      6.99554      165.090 
1.10459e-05      7.31289      169.919 
-6.39815e-05      7.69592     -169.216 
-2.15630e-05      6.92693     -169.015 
4.23320e-05      8.84217      167.724 
-4.22184e-05      6.80952      176.970 
4.19334e-05      7.25192      159.666 
4.21070e-05      7.20222      167.816 
1.07954e-05      5.19477      173.367 
-2.12548e-05      4.87705      172.933 
2.11766e-05      6.14296      164.516 
-5.23021e-05      7.08723      177.412 
2.10813e-05      7.82304      175.601 
-4.17535e-05      9.27741      157.969 
-4.19400e-05      5.17610     -171.557 
3.14241e-05      5.23450      173.418 
-2.09262e-05      5.10325      158.866 
2.08081e-05      8.14125     -170.954 
-4.15095e-05      7.06269     -170.218 
2.08116e-05      6.31569      165.700 
-1.04786e-05      8.31433      166.365 
-1.04518e-05     0.164924     -165.964 
1.04478e-05      4.97819     -164.624 
2.06750e-05      4.13937     -174.455 
-2.05736e-05      5.88122     -178.831 
1.03231e-05      6.32582      160.419 
-1.03206e-05      2.80713     -147.216 
-1.03115e-05      6.68969     -176.915 
1.02827e-05      8.91964      174.596 
1.02786e-05      6.71619      167.619 
-1.02579e-05      3.88330     -177.639 
1.02359e-05      7.62407      155.183 
1.02246e-05      5.32015     -179.569 
1.02004e-05      6.84082      169.216 
