! Center RA: 22 02 43.29137,  Dec: +42 16 39.97987 (2000.0)
! Tentative model.
! Flux (Jy) Radius (mas)  Theta (deg)  Major FWHM (mas)  Axial ratio   Phi (deg) T \
! Freq (Hz)     SpecIndex
 0.0569722     0.126491     -161.565 
 0.0151731    0.0800000      180.000 
0.00107590     0.120000      180.000 
0.00699296     0.282843     -171.870 
0.00469604    0.0894427     -153.435 
0.00967108     0.322490     -172.875 
0.00692606     0.368782     -167.471 
0.00912262    0.0565685     -135.000 
0.00774556     0.407922     -168.690 
0.00319956    0.0400000      180.000 
0.00382796     0.447214     -169.695 
0.00498570    0.0400000     -90.0000 
0.00147993     0.486621     -170.538 
0.000971930     0.526118     -171.254 
0.000550382     0.521536     -175.601 
0.00174566      1.36235     -176.634 
0.00138080      1.40228     -176.730 
0.00106181     0.561427     -175.914 
0.000396056     0.565685     -171.870 
0.00173417    0.0565685     -45.0000 
0.000196490     0.160000      180.000 
-0.00195823     0.282843     -135.000 
0.000479241     0.601332     -176.186 
0.000428203      6.24320     -178.164 
0.000365033      2.36034     -179.029 
0.00101762      6.36453     -177.839 
-0.000493795      5.17177     -151.849 
0.000399950      3.20100     -178.568 
0.000747265      2.52792     -175.462 
0.000127604      2.05679     -166.504 
0.000487948      3.63186     -172.405 
-0.000862121      5.15302     -152.241 
0.000719460      2.04353     -176.634 
0.000672766      1.37928     -163.142 
0.000198855      2.08691     -167.829 
0.000260601      2.13841     -172.476 
-0.00102330      7.57691      166.257 
-0.000240186      5.18845     -152.447 
0.000626819      3.45485     -174.685 
-0.000332800      7.65768     -167.634 
0.000925502      3.61353     -153.719 
-0.000404746     0.312410     -140.194 
0.000184843      6.20322     -178.152 
0.000617872      4.61268     -168.495 
0.000524850     0.641249     -176.424 
-0.000687897      4.20076      178.909 
0.000352106      3.12026     -179.265 
0.000709222      2.36000      180.000 
0.000679622      2.01792     -166.239 
-0.000655655      7.17886      175.846 
-0.000305779      7.44269      178.460 
0.000699820      9.28078      156.639 
0.000510469      2.96971     -175.365 
-0.00148727     0.401995      5.71059 
3.64344e-05      1.44222     -176.820 
-0.000334085      5.49531     -155.487 
3.49924e-05      2.12603     -168.056 
0.000633277    0.0894427     -63.4349 
0.000223824      8.85889      155.171 
-0.000567989      8.61366      173.601 
0.000540820      2.16518     -168.275 
-0.000209424      7.57100     -167.800 
3.39049e-05      1.48216     -176.906 
0.000827951      7.18142     -164.493 
-0.00111347     0.721110     -146.310 
0.000252304      3.24222     -177.879 
-0.000239333      2.72998      169.019 
-0.000149884      5.92284      168.311 
-0.000728228      7.44387      178.152 
0.000300873      2.64030     -179.132 
-0.00165312     0.256125     -141.340 
0.000506699      8.19219      164.131 
0.000313103      6.99714      149.036 
-0.000411154      7.81895     -170.875 
-0.000549976      6.24436      168.546 
0.000511395      6.87372     -174.323 
0.000604019      3.98577     -148.543 
-0.000516987      2.88139      166.350 
0.000380897      7.83275      159.992 
-0.000581265      5.05157     -159.125 
0.000268162      2.82730     -154.885 
-0.000219852      7.69675     -167.697 
0.000384475      7.42342     -164.691 
-0.000491506      4.56508      171.941 
0.000386002      7.42375      153.435 
-0.000677449      6.98249      161.980 
-0.000334115      5.18614      161.565 
5.95183e-05      3.59778     -171.690 
-0.00115864      6.24948      162.493 
0.000200066      8.65489      165.000 
3.03950e-05      3.69432     -160.388 
8.79559e-05      4.55456     -172.937 
-0.000214409      5.89196      167.851 
-0.000117797      7.56751      166.551 
0.000109895      8.16862      165.828 
0.000823297      2.68477     -146.547 
0.000312768      9.61740      156.207 
-0.000692685      8.76429      174.237 
0.000190760      4.78280     -165.964 
0.000402474      2.09876     -172.333 
0.000208409      3.68109     -160.974 
0.000502717      8.19854      160.327 
-0.000348459      7.54930     -170.238 
-2.91616e-05      5.76888     -160.560 
0.000387230      7.94159      157.180 
-0.000227897      5.10310      166.399 
2.90211e-05      6.97665      149.318 
-0.000562416      6.59078     -162.335 
0.000260500      8.82261      155.062 
0.000695437      7.25369      150.608 
0.000209699      8.51361      160.799 
0.000424937      6.93836      159.057 
8.34745e-05      9.56928      159.444 
-0.000158992     0.768375     -128.660 
0.000151351      4.70846     -170.218 
0.000425650      3.24099     -178.586 
-0.000342114      7.66634      167.341 
0.000325033      7.08090     -173.839 
-0.000496611      4.40872      168.486 
-0.000299733      4.04712      176.600 
0.000206759      8.28396      154.549 
0.000477455      9.62663      158.552 
0.000550880     0.681175     -176.634 
0.000314695      1.32242     -176.532 
-5.45510e-05      7.53191     -167.735 
-0.000381242      5.24976      162.255 
9.98108e-05      3.82832     -169.160 
0.000214169      1.52210     -176.987 
-0.000213997      7.52861      166.481 
-0.000226922      2.68328      169.695 
0.000408801      3.63736     -171.781 
0.000755367      6.09944     -163.229 
0.000246249      7.10256     -166.981 
0.000204480      4.51486     -172.875 
-0.000213604      5.75569     -160.935 
-0.000456569      7.18142      164.493 
0.000794188      8.64463      165.256 
0.000124885      5.99867     -173.491 
0.000615347      4.24924     -165.833 
0.000236654      9.55531      159.669 
0.000412633      6.92867      148.696 
0.000162968      4.75395     -165.379 
0.000337661      5.17007      152.840 
-0.000257074      6.37558      172.429 
-0.000350427      7.81271     -171.165 
-0.000214533      7.74483     -172.581 
9.81643e-05      7.14658     -168.376 
-0.000251707      7.28000      180.000 
0.000198120      6.83801     -173.956 
0.000115655      6.36553     -173.143 
-0.000176391      7.19222      174.575 
0.000203391      4.62082     -168.009 
-0.000180928      8.11478     -170.352 
-0.000477410      7.13896      175.823 
-0.000195884      5.33442      171.809 
-9.50717e-05      7.61010     -167.863 
7.10321e-05      4.79483     -160.507 
0.000419432      8.23067      154.680 
9.04157e-05      2.04157     -177.754 
0.000126308      6.85134      153.285 
0.000366704      8.41275      164.840 
0.000168762      5.18845      152.447 
-0.000577239      5.95731      154.123 
-2.44152e-05      7.11652      174.193 
0.000115567      4.75714     -160.346 
0.000427319      4.95177      173.506 
0.000186859      6.12209     -165.237 
0.000333093      5.56705      160.263 
0.000507971      5.95449     -173.830 
0.000431466      6.87279     -169.606 
0.000317890      6.37457     -165.092 
0.000615618      6.72298      159.085 
-0.000542858      5.88367      168.232 
-0.000768447      3.87092     -166.251 
-0.000135170     0.906863     -138.576 
8.72059e-05      7.90473      157.068 
0.000524328      6.81563      153.134 
0.000404725      7.13863     -168.690 
0.000786587      6.12405     -160.145 
4.42639e-05      4.44504     -164.338 
6.34112e-05      8.17450      159.969 
7.84141e-05      8.46187      164.650 
0.000187302      6.21289      176.309 
0.000121598      8.55102      153.914 
-0.000394143      7.23204      174.605 
0.000636860     0.760000      180.000 
-0.000174872      7.64921     -167.926 
0.000151732      3.76191     -144.958 
9.74759e-05      4.60435     -161.250 
8.52064e-05      7.50893     -165.816 
8.14194e-05      4.45852     -170.707 
-7.45970e-05      7.66039     -172.801 
-0.000408864      5.61726      175.507 
2.17966e-05      4.86391     -168.136 
0.000477929      5.22961      158.931 
9.55089e-05      2.64000      180.000 
0.000613682      4.74384     -160.801 
-4.25151e-05      5.00000     -159.390 
0.000428074      3.43628     -167.905 
0.000613559      5.71454     -166.645 
-0.000303441     0.920869     -145.620 
0.000418719      4.87229     -167.675 
0.000226026      1.42941     -162.072 
0.000223606      4.73624     -164.320 
6.03098e-05      8.33729      154.418 
-4.15109e-05      7.53233      149.349 
-0.000505401      6.08342      157.989 
0.000281950      3.86761     -169.271 
-0.000133282      7.19222      164.186 
-0.000530577      4.96258     -159.228 
0.000192666      5.68056     -179.193 
-0.000844019      1.40911      173.480 
0.000215021      1.97464     -173.019 
-2.06110e-05      5.20707     -152.057 
-0.000468060      3.32024     -158.070 
0.000275254      3.74422     -161.952 
-0.000265420      7.49282     -167.670 
-0.000650591      7.46415      175.389 
2.05698e-05      7.07412      159.823 
0.000116178      5.51594      160.514 
-4.01319e-05      3.65776      174.352 
0.000287472      3.92734     -146.634 
-0.000265217      8.44294      167.412 
0.000603761      5.00016     -179.542 
0.000433786      8.21170      173.567 
0.000513807      6.60097      153.745 
-0.000384391      7.24000      180.000 
0.000201965      7.54772     -165.890 
0.000234032      7.74648      152.641 
-0.000267280      7.49795      149.194 
0.000236423      7.03659      159.711 
-0.000285858      8.14764     -170.676 
0.000129852      8.57242      158.943 
0.000239687      6.40525     -173.186 
0.000268869      5.89888     -159.353 
-0.000346021      6.72726     -170.762 
-0.000250162      3.37520      174.560 
0.000516026      8.23621      160.421 
9.36593e-05      3.08026     -179.256 
-0.000393061      4.11145     -160.684 
0.000183363      6.21044      176.677 
-0.000119867      7.81404     -167.885 
9.33821e-05      3.28219     -177.905 
-0.000102272      8.26849     -169.125 
-0.000356300      4.27776     -151.518 
0.000263608      2.79342     -150.866 
-3.74742e-05      7.35935      169.667 
0.000508666      8.98577      175.660 
-3.74596e-05      5.60642      150.509 
-0.000160569      4.76202      169.351 
5.44002e-05      2.86356     -155.225 
0.000117903      6.37420      166.574 
-1.87866e-05      3.69757      174.413 
0.000345815      6.11202     -165.600 
0.000195024      4.07077     -157.467 
-3.66354e-05      8.48999      169.961 
0.000270178      2.42685      171.469 
0.000103833      8.11330      159.510 
0.000358016      6.41324     -165.184 
1.82913e-05      6.33025      176.740 
-0.000149462      3.69389      175.030 
0.000332910      1.28561     -174.644 
-0.000320075      5.67041     -163.610 
-0.000267922      5.64128      150.709 
-0.000144526      8.24670      169.944 
2.96081e-05      4.70183     -170.698 
1.80648e-05      5.05205      169.046 
5.22418e-05      6.57802     -166.640 
0.000302045      7.92091      179.132 
-0.000152653      7.32000      169.611 
0.000456466      6.37018      176.760 
-0.000180774      2.87221      167.125 
3.48027e-05      8.31865      154.051 
-9.83006e-05      4.96258      178.152 
-0.000102578      4.16077      178.898 
0.000164058      3.04105     -178.493 
-5.09775e-05      3.88021     -179.409 
-1.74339e-05      1.28561      174.644 
0.000313257      5.01278      168.959 
-0.000285545      8.52938      170.008 
0.000110086      8.59553      159.288 
-7.40933e-05      7.39340      166.866 
0.000112081      1.56205     -177.064 
-0.000279685      7.48385      178.162 
-0.000288202      8.38446      175.622 
3.31315e-05      8.51512      153.796 
-0.000198206      5.52883     -162.745 
-0.000158108      7.23414      169.808 
4.46470e-05      7.85234      157.223 
3.32217e-05      5.32721     -169.618 
-0.000167835      6.06854      158.339 
-0.000251210      7.78974     -172.328 
4.87375e-05      8.78635      154.952 
8.26738e-05      7.18187     -175.528 
0.000211962      6.18152      164.615 
-0.000101719      2.68745     -165.343 
-0.000125701      6.96563      166.044 
0.000108040      2.89993     -155.556 
0.000495583      9.15511      168.150 
-7.75415e-05      2.84253      166.159 
0.000141761      4.74131     -170.776 
0.000138001      4.21046     -165.700 
-0.000294335      5.67634      164.887 
-0.000246855      1.78213      170.961 
6.36645e-05      3.44093     -144.462 
0.000121790      8.13093      156.209 
-3.12820e-05      5.54833     -155.283 
0.000294913      5.86147     -159.215 
0.000276490      9.02016      173.379 
0.000114041      6.58738     -166.301 
8.77728e-05      8.33623      153.804 
0.000192284      4.34658     -173.660 
-3.11863e-05      3.73374      175.083 
0.000299899      7.55757     -165.596 
-0.000258216      3.92020     -179.415 
0.000231666      8.57233      157.504 
4.71207e-05      8.67862      162.567 
-1.60358e-05      5.81378      167.685 
-0.000236864      8.36268     -166.163 
-3.17736e-05      4.14922     -160.866 
0.000216895      4.16864     -154.418 
0.000163586      6.90797      148.979 
3.16637e-05      3.04026     -179.246 
0.000265617      5.09274      175.946 
-0.000253022      5.65714      175.539 
4.30889e-05      8.29120      163.751 
-0.000337479      7.49549      159.050 
0.000296841      3.30720     -147.848 
-0.000225239      4.74384      155.596 
-1.54121e-05      1.13772      169.875 
-0.000225205      5.77470      167.600 
0.000158141      6.27388     -171.198 
-1.52711e-05      3.88082     -178.819 
0.000100596      5.19230      158.772 
-4.35592e-05      4.76403      156.233 
0.000279353      3.00027     -179.236 
8.17116e-05      6.59697      165.964 
4.49071e-05      3.21646      169.249 
1.51697e-05      8.20039      179.441 
-0.000160877      4.99296     -151.793 
0.000267373      9.47460      161.030 
-2.90236e-05      2.69072      168.857 
-0.000287706      6.68778     -170.707 
9.79543e-05      8.12355      178.307 
0.000229989      4.22052     -165.174 
0.000200613      8.66672      162.820 
6.99990e-05      2.01435     -173.157 
-2.95975e-05      5.65926     -163.999 
-0.000139124      7.77946      162.031 
6.94353e-05      8.75013      154.841 
9.62712e-05      6.92289      153.583 
-0.000160733      7.88091     -179.128 
-0.000130439      3.88186     -178.229 
0.000197160      3.20924      169.951 
-9.52452e-05      7.19611      174.258 
-9.27027e-05      1.32544      174.806 
-8.35571e-05      8.40390      167.353 
4.26796e-05      8.90573      173.035 
-2.81928e-05      4.20019     -160.530 
0.000209643      3.28000      167.320 
0.000105519      5.60471      160.401 
0.000114857      4.94740      173.967 
-5.39634e-05      4.88410      177.653 
-0.000121170      3.64878     -167.335 
7.84814e-05      8.18134      164.401 
-1.42811e-05      5.40992      156.468 
-0.000205274      8.80409      174.264 
9.39552e-05      6.30327      156.038 
-0.000218049      6.62842      156.529 
-6.51171e-05      7.98499     -165.198 
-0.000166480      6.36000      180.000 
0.000153310      3.80841     -162.897 
4.01987e-05      5.92243     -159.852 
6.62941e-05      2.93639     -155.879 
-0.000115097      6.55268     -162.229 
-7.73256e-05      6.09852     -157.640 
0.000127211      7.78152      160.168 
-3.87009e-05      4.44792      168.589 
2.69947e-05      2.92000      180.000 
-3.89217e-05      7.70538      167.407 
0.000125714      4.69774     -164.189 
-0.000112874      5.42129     -174.920 
8.87383e-05      8.16755      156.322 
-7.62986e-05      4.16250     -160.346 
0.000125965      7.76381      153.039 
0.000161170      8.94069      173.320 
0.000137555      8.17743      154.814 
-0.000150671      6.37520      161.338 
6.20894e-05      8.50054      161.053 
-1.34378e-05      6.41523      172.476 
2.58027e-05      8.12010     -179.718 
-6.24402e-05      1.82165     -160.769 
0.000124916      5.01135      163.301 
0.000137580      6.31341     -171.254 
-2.57398e-05      7.45375     -167.605 
-7.60756e-05      6.94447      161.878 
3.82222e-05      2.00160     -177.709 
3.88659e-05      6.17051      176.655 
3.87858e-05      8.90097      173.290 
-8.63333e-05      8.23310     -170.492 
-1.31809e-05      6.70689      174.867 
-9.88501e-05      5.81378      176.055 
-0.000111319      3.24395      177.173 
9.86509e-05      9.44847      158.649 
3.81743e-05      8.45137      164.911 
-6.16483e-05      2.64394      169.540 
-3.76780e-05      5.30072      171.320 
-9.96120e-05      8.36488      167.293 
7.42980e-05      7.08531      154.592 
-8.63984e-05      4.16941      171.170 
9.85864e-05      6.54400     -163.670 
8.66085e-05      6.03258     -168.914 
8.59002e-05      7.51883     -165.520 
8.60381e-05      8.86034      176.117 
3.73148e-05      5.48131     -178.746 
3.75281e-05      3.59600     -154.290 
0.000110619      4.20476     -154.654 
8.60561e-05      5.20984      176.479 
-7.32331e-05      5.69575      150.555 
4.91242e-05      6.57389     -172.659 
3.72138e-05      2.68000      180.000 
6.13700e-05      8.08356      178.299 
-2.49634e-05      3.80337     -177.589 
-9.81065e-05      7.53891      161.757 
4.88836e-05      4.70608     -160.641 
7.31781e-05      2.70703     -145.840 
4.86688e-05      4.52000      180.000 
-7.27809e-05      7.81752      162.121 
1.26219e-05      2.20436     -168.486 
-6.11635e-05      4.24170      164.129 
7.24404e-05      7.25192      159.666 
4.84846e-05      8.35397      153.558 
9.68523e-05      4.90616     -155.943 
-6.03480e-05      7.48267      178.468 
-9.64717e-05      3.68782     -167.471 
3.67400e-05      7.27340      150.333 
2.47378e-05      6.16208     -178.512 
-7.21619e-05      7.28857      173.382 
-3.65078e-05      3.41503      174.623 
4.80701e-05      6.26674      155.889 
4.81561e-05      6.16831      177.026 
4.82230e-05      3.07376     -161.801 
3.61599e-05      5.88490     -159.717 
-2.42620e-05      7.68833     -167.989 
4.82693e-05      1.32544     -174.806 
1.23333e-05      4.19237     -164.505 
-5.98192e-05      4.31296     -151.771 
1.22847e-05      8.71394      154.729 
-4.77013e-05      7.50562     -163.593 
4.75365e-05      2.92027     -156.595 
2.40510e-05      4.49800     -170.789 
-2.37588e-05      6.27273      174.144 
1.20754e-05      8.32961      163.828 
4.73794e-05      3.24863      170.074 
-2.37176e-05      8.96036      156.869 
3.53298e-05      8.47972      165.243 
2.37502e-05      9.42380      161.181 
-3.55343e-05      7.84041     -179.415 
-2.37372e-05      7.28066      169.554 
-3.53288e-05      6.91908      161.460 
2.36836e-05      4.15384     -164.358 
-1.19097e-05      7.35445      166.795 
-2.35335e-05     0.322490      29.7449 
-2.35056e-05      5.58068      175.066 
1.18951e-05     0.721110     -176.820 
-1.18291e-05      8.97615      156.634 
1.18313e-05     0.520000      180.000 
1.18344e-05      8.60595      165.189 
1.17916e-05      6.32456     -177.825 
-1.18059e-05      7.52649      162.047 
1.17286e-05      6.91213     -169.665 
1.17275e-05      8.39095      152.458 
-1.16847e-05      7.61777      176.086 
-2.33078e-05      8.32586      167.232 
1.16256e-05      3.39718     -167.764 
