! Center RA: 04 23 15.80073,  Dec: -01 20 33.06555 (2000.0)
! Established model.
! Flux (Jy) Radius (mas)  Theta (deg)  Major FWHM (mas)  Axial ratio   Phi (deg) T \
! Freq (Hz)     SpecIndex
  0.996656      0.00000      0.00000 
 0.0385167    0.0200000     -180.000 
 0.0109879    0.0200000      90.0000 
 0.0104652    0.0282843     -135.000 
 0.0100393    0.0400000      90.0000 
 0.0266628    0.0447214     -116.565 
 0.0179157    0.0600000      90.0000 
 0.0352049    0.0824621      104.036 
 0.0443142    0.0632456     -108.435 
 0.0159112     0.416173      144.782 
0.00722394     0.107703      111.801 
 0.0134717     0.116619      120.964 
 0.0502511    0.0824621     -104.036 
0.00443800     0.400000      143.130 
 0.0173666     0.128062      128.660 
 0.0136821     0.428019      142.595 
 0.0105612     0.593970      135.000 
0.00339088     0.368782      139.399 
 0.0159683     0.580000      133.603 
0.00780555     0.141421      135.000 
0.00464216     0.353836      137.291 
0.00228797     0.444072      144.162 
0.00205776     0.466476      120.964 
0.00202585     0.388330      168.111 
0.00193418     0.651153      137.490 
0.00186816     0.493964      148.241 
0.00335544     0.447214      116.565 
0.00453031     0.666033      138.652 
 0.0102975     0.737564      130.601 
0.00170509     0.407922      168.690 
0.00166320     0.295296      118.301 
0.00155040     0.545894      151.557 
0.00144843     0.427551      169.216 
0.00271836     0.101980      101.310 
0.00139003     0.286356      114.775 
0.00831997    0.0800000     -90.0000 
0.00135030     0.581378      153.435 
0.00124543     0.430813      111.801 
0.00122357     0.444072      172.235 
0.00119034     0.100000      90.0000 
0.00319916     0.278568      111.038 
0.00409351      1.10164      176.878 
0.00217428     0.617414      155.095 
0.00691035     0.707107     -171.870 
0.00102544     0.681175      139.764 
0.00101105     0.463897      172.569 
0.00100289     0.101980      78.6901 
0.000915060     0.113137      45.0000 
0.00218492     0.696563      140.826 
0.000867441     0.635610      155.854 
0.000856838     0.585491      172.147 
0.00152332     0.423792      109.290 
0.000829401     0.128062      38.6598 
0.000824635      1.12161      176.934 
0.00489838     0.740270      128.418 
0.00144817     0.272029      107.103 
0.000784951     0.746726      172.304 
0.00309976      1.22589     -174.382 
0.00193728     0.156205      129.806 
0.00189267     0.766551      172.504 
0.000705230      1.14158      176.987 
0.00133325     0.144222      33.6901 
0.00238330    0.0824621     -75.9638 
0.000681914     0.690797      157.891 
0.00232325      1.39270     -167.560 
0.000609772      1.16155      177.039 
0.000597956     0.882950      166.908 
0.00137650     0.169706      135.000 
0.000985601     0.417612      106.699 
0.000546920     0.161245      29.7449 
0.000534784     0.266833      102.995 
0.00103795      1.84532     -175.649 
0.000523594     0.709366      158.499 
0.000514763      1.18152      177.089 
0.00224678     0.786384      172.694 
0.000493308     0.728011      127.185 
0.000903269     0.178885      26.5651 
0.00119382     0.263059      98.7462 
0.00239379      1.86526     -175.696 
0.000467235     0.431741      103.392 
0.00231707    0.0894427     -63.4349 
0.000861711      1.92052     -171.617 
0.000436408     0.700000      143.130 
0.000433166      1.22147      177.184 
0.000427975      1.24579     -174.472 
0.000413030     0.902441      167.196 
0.000760425      1.90074     -171.529 
0.000389668      1.32378     -175.668 
0.00152862     0.208806      16.6992 
0.000368921      1.26143      177.274 
0.000662424     0.712180      141.843 
0.000357091     0.427551      100.784 
0.000351538     0.698570      156.371 
0.000348204     0.196977      23.9625 
0.00123698      1.92354     -171.027 
0.000338983      1.34373     -175.732 
0.000884604     0.962081      133.315 
0.000316488      1.30138      177.357 
0.000852701     0.441814      95.1944 
0.000309049      1.36367     -175.795 
0.000858798      1.88521     -175.741 
0.00188483     0.100000     -53.1301 
0.000287395     0.792465      137.045 
0.00112482      1.90379     -170.933 
0.000537968      1.34134      177.436 
0.000705350      1.38362     -175.855 
0.000876530     0.280713      94.0856 
0.000496853      2.55515     -161.281 
0.00126746     0.793977      139.086 
0.000463551     0.716938      157.011 
0.00118938      1.66769     -157.433 
0.00145110     0.990353      133.363 
0.000245099     0.808950      171.469 
0.000244108      1.90515     -175.786 
0.000448497     0.215407      21.8014 
0.00135150      1.35823      166.373 
0.00222669     0.460435      92.4896 
0.00193262      1.85828      171.957 
0.00174899      2.57410     -161.424 
0.000430573      1.92510     -175.830 
0.000635219      2.74066     -166.065 
0.000898940     0.234094      19.9831 
0.000221247      1.36132      177.474 
0.000578217     0.260768      94.3987 
0.000525400      1.87883     -154.799 
0.00101986      2.50799     -156.501 
0.00115960      1.89694     -155.056 
0.000958660     0.724983      155.556 
0.000187612      1.72105      178.002 
0.000184759      1.94505     -175.872 
0.00233137     0.113137     -45.0000 
0.000183183      1.37768      166.569 
0.000655588      2.72125     -165.964 
0.00176702      1.68618     -157.694 
0.000170851      1.40357     -175.914 
0.000166837      1.98363     -176.532 
0.000163374     0.721110      146.310 
0.000161966      2.47111     -168.326 
0.00115114      1.53075     -162.512 
0.000546771     0.260000      90.0000 
0.000155165     0.847585     -160.710 
0.000413913      2.65932     -173.089 
0.000150613     0.806226      172.875 
0.000416665     0.809197      140.013 
0.000149757      1.96499     -175.914 
0.000375746     0.687314     -171.634 
0.000475673      2.49070     -168.419 
0.000281992     0.976729      132.510 
0.000489651      1.46219     -176.864 
0.00122658      1.38246      165.763 
0.000267671      2.00360     -176.566 
0.000346046     0.828734     -160.253 
0.00163222     0.252982      18.4349 
0.00124941      5.07279     -175.930 
0.000250963      2.52634     -156.682 
0.000248289      2.70185     -165.861 
0.000357394     0.480000      90.0000 
0.000186341      3.66005      179.687 
0.000126650      1.51169     -162.284 
0.000124245     0.765506      109.855 
0.000217195      2.51030     -168.511 
0.000706797      1.86118      171.347 
0.00134880      3.64006      179.685 
0.000330937     0.824621      140.906 
0.000504965      3.75681     -161.372 
0.000117271      1.98494     -175.956 
0.000116911      1.91050     -149.139 
0.000563464      2.59307     -161.565 
0.000652634     0.758947      108.435 
0.000114533      1.86118     -171.347 
0.000395704      2.02356     -176.600 
0.000109251      2.68246     -165.757 
0.000104990     0.727186      148.496 
0.000199133      1.89336     -148.829 
0.000103169      2.54472     -156.861 
0.000101062      1.00419      134.193 
0.000196913      3.73786     -161.274 
0.000667362      1.48216     -176.906 
0.000188006      2.66308     -165.651 
0.000188239      1.69198     -151.011 
0.000181563     0.840238      141.766 
0.000328167      1.01823      135.000 
9.32348e-05      1.87808      172.042 
9.33503e-05      2.56312     -157.036 
9.25502e-05      3.71892     -161.175 
9.19462e-05      2.00489     -175.996 
0.000173209      3.45080     -157.150 
9.03818e-05     0.734302      150.642 
8.72101e-05      3.70000     -161.075 
8.72303e-05      1.91510     -155.308 
0.000322137      4.19357     -160.787 
0.000498292      1.88096      171.439 
8.40074e-05      2.58155     -157.209 
8.38097e-05      3.58670     -160.454 
0.000371639      1.67451     -150.680 
0.000587078     0.128062     -38.6598 
8.25210e-05      2.64371     -165.543 
8.22282e-05     0.724707      152.021 
0.000470101      2.04353     -176.634 
8.05309e-05      1.87627     -148.513 
0.000411122      2.84605     -145.305 
0.000362421      3.54903     -160.238 
7.85952e-05      2.67686     -173.565 
7.82213e-05      2.61847     -157.548 
7.78624e-05      4.21246     -160.877 
7.70415e-05      1.93329     -155.556 
0.000144242     0.856037      142.595 
7.69879e-05      2.02485     -176.035 
0.000214183      3.45861     -156.845 
7.59495e-05     0.715542      153.435 
0.000592483      4.23792     -160.710 
7.54826e-05      1.84141     -171.254 
7.42783e-05     0.280000      90.0000 
0.000197698     0.975910      134.170 
7.37916e-05      2.52990     -168.601 
0.000261990      4.38552     -177.125 
0.000451593      3.55629     -174.514 
0.000323659      3.82884      176.106 
0.000137076      2.63697     -157.714 
0.000254796     0.752861      106.991 
0.000315954      5.05284     -175.914 
0.000199676      3.90958      172.948 
0.000132518      2.62435     -165.434 
6.95664e-05     0.667533     -171.384 
0.000189267      1.76182      177.397 
0.000127915      1.95151     -155.799 
0.000252524      1.75328      168.818 
-0.000314249      4.34235     -174.184 
0.000253093      4.43157     -175.859 
0.000121849      2.61205     -161.704 
0.000301934     0.500000      90.0000 
0.000247365      1.50213     -176.947 
6.34219e-05      3.53021     -160.128 
0.000122483     0.930591     -151.783 
0.000118546      2.54951     -168.690 
0.000115793      1.36308      165.556 
6.06942e-05      4.43085     -157.718 
6.06834e-05      2.74642     -154.555 
0.000174567      3.88731      173.204 
6.02818e-05     0.170880     -20.5560 
6.00085e-05      2.69258     -158.199 
5.95142e-05      1.14978      130.061 
0.000117208      3.51141     -160.017 
5.85418e-05      4.25681     -160.799 
5.77384e-05      2.64038     -146.430 
0.000112807      4.42330     -157.958 
5.70182e-05      4.36458     -177.374 
-5.69275e-05      4.96488     -170.727 
5.67614e-05      3.79473     -161.565 
-0.000112708      3.48574     -176.711 
5.65474e-05      1.85925     -148.191 
5.64302e-05      2.47976     -138.597 
-5.63303e-05      3.18446     -147.308 
5.61738e-05     0.826075      173.047 
5.60418e-05      2.60500     -165.324 
5.59489e-05      3.66022      179.374 
5.58060e-05      1.44125      177.614 
5.52803e-05      2.71116     -158.356 
-5.58866e-05     0.120000     -180.000 
5.47738e-05     0.835703     -158.962 
