! Center RA: 17 51 32.81857,  Dec: +09 39 00.72829 (2000.0)
! Tentative model.
! Flux (Jy) Radius (mas)  Theta (deg)  Major FWHM (mas)  Axial ratio   Phi (deg) T \
! Freq (Hz)     SpecIndex
-0.0414738    0.0800000      180.000 
-0.0122923     0.120000      180.000 
0.00529447     0.215407      21.8014 
0.00322801     0.203961      11.3099 
-0.00194087      1.17712      9.78241 
0.00653389     0.178885      26.5651 
-0.000777904     0.963328      4.76364 
-0.00196936     0.927793      7.43141 
-0.00198731      1.21655      9.46232 
-0.000958845      1.52000      0.00000 
-0.000633462      1.48054      1.54816 
-0.00103681      1.21062      7.59464 
-0.00125745      1.12641     -6.11550 
-0.000270339     0.855102      10.7843 
-0.000776756      1.45382     -7.90716 
-0.000163862     0.815843      11.3099 
-0.00122962     0.785875      14.7436 
-0.000214166      1.25028      7.35238 
-0.000535637      1.52053     -1.50744 
0.00144099     0.126491     -108.435 
-0.000283305    0.0400000      180.000 
0.00623491     0.243310     -170.538 
0.000600838     0.144222      33.6901 
-0.00196883     0.481664      4.76364 
-0.000316921      1.52210     -3.01279 
0.00198399     0.164924      14.0362 
-0.00117673      1.07331      26.5651 
-0.000461409      1.08665     -6.34019 
-0.000718657      1.64779      5.57220 
-0.000698918      1.00319      4.57392 
0.000446266     0.400000      36.8699 
-0.000641866      1.52473     -4.51399 
0.00137039      1.65747      19.7468 
0.00113591     0.120000     -90.0000 
-0.000120834      1.20599      5.71059 
0.000502984     0.368782      40.6013 
-3.95978e-05      1.28250      3.57633 
-0.000305892      1.24258      3.69139 
-0.000846384      1.60798      5.71059 
-0.000404698      1.09179     -8.42697 
0.000316087     0.126491      108.435 
-9.89581e-05     0.961665      16.9275 
-0.000149968      1.12925      22.9321 
-0.000824696      2.31482      9.95063 
0.000967105     0.377359      32.0054 
-0.00144759     0.441814      5.19443 
0.000463298      1.48000     -18.9246 
-0.000499077      1.48862     -6.17017 
-7.11828e-05     0.967471      7.12502 
-0.000356826     0.989545      14.0362 
-0.000281817      1.20266      3.81407 
0.000360350      1.57632      35.7067 
0.00102118     0.200000      0.00000 
0.000903822     0.144222      123.690 
-2.75233e-05      1.16619      5.90614 
-0.000503116     0.961665     -16.9275 
0.000349336     0.126491     -71.5651 
-2.56865e-05      1.13772      10.1247 
-0.000314868      1.00717      6.84277 
-0.000395728      1.03769      27.5528 
0.000423924      1.44222     -19.4400 
-0.000511622      2.20145      24.7024 
-0.000239751      1.16619      22.1663 
0.000242716      1.78885      26.5651 
0.000310782      1.59700      22.0679 
0.000333069      1.63169     -11.3099 
0.000459225      2.03686      19.5024 
0.000289731    0.0894427     -116.565 
0.000632812    0.0800000     -90.0000 
0.000118996     0.544059      36.0274 
-0.000234560      1.93039      34.0193 
-0.000729435     0.268328     -153.435 
0.000159586      1.96652      4.66686 
-9.41756e-05     0.761052     -3.01279 
-0.000117629      1.13137     -8.13010 
0.000263029      1.40456     -19.9831 
0.000170786      1.92666      4.76364 
0.000124446      2.27015      14.2811 
0.000218031     0.747262     -15.5241 
-7.54136e-05      2.08000      0.00000 
-4.54504e-05      1.05906      10.8855 
5.98518e-05      1.53935      24.5672 
4.40104e-05      1.36704     -20.5560 
4.37211e-05     0.785875     -14.7436 
1.47722e-05      1.59248     -11.5922 
-1.45435e-05      2.35423      9.78241 
