! Center RA: 04 23 15.80073,  Dec: -01 20 33.06555 (2000.0)
! Tentative model.
! Flux (Jy) Radius (mas)  Theta (deg)  Major FWHM (mas)  Axial ratio   Phi (deg) T \
! Freq (Hz)     SpecIndex
0.00977616    0.0400000      180.000 
0.00513749    0.0800000      180.000 
0.00200885      2.63697     -170.395 
0.000759255      2.63059     -171.254 
-0.00114206     0.983870      153.435 
0.000633447      4.93283     -171.607 
-0.00128075      1.34937      168.024 
0.000541999      3.60089     -178.727 
0.00104397      4.96677     -172.131 
0.000138645      3.56202     -178.069 
0.000904245      4.24170      178.379 
0.000313277      3.66191      173.729 
0.000644581      4.85979     -171.003 
-0.00115504     0.983870     -153.435 
0.000822979     0.456070      164.745 
0.00112378      3.66650      173.108 
0.000358918      4.16480      177.248 
0.000175142      3.60200     -178.091 
-0.000289947      1.01980      154.440 
0.000578185      2.56281     -177.316 
0.000101766      3.28609      176.511 
0.000139989      3.28877     -175.815 
0.000467422      5.25525     -175.635 
0.000732342      2.95053     -164.268 
3.55493e-05      3.64088     -178.741 
-0.000894316      3.11589     -150.803 
-0.000742442      2.29817     -148.523 
0.000517332     0.683520     -159.444 
-9.77278e-05     0.823650      150.945 
-0.00117256      4.34235      174.184 
0.000266237      4.46175     -174.341 
0.000330594     0.368782      167.471 
0.000337778     0.226274      45.0000 
-0.000906008     0.521536      147.529 
0.000464531     0.447214      63.4349 
-0.000142882     0.788923      149.534 
0.00115895      5.25235     -176.070 
5.85578e-05      3.28390      177.207 
0.000237488      4.28168      178.394 
0.000536473      4.12698      176.666 
2.89826e-05      1.96122     -168.232 
0.000326533     0.526118      98.7462 
-0.000596051      3.05182     -169.426 
-8.23073e-05      2.55249     -147.804 
0.000252095      1.95346     -169.380 
0.000543724      3.28219      177.905 
-0.000572751      4.60626     -177.013 
0.000333107      2.98530     -162.051 
0.000284053      3.56741     -162.378 
0.000526615      4.42195     -174.289 
-0.000123265      1.38101      169.992 
-0.000498096      2.66833     -139.865 
0.000607698     0.200000      53.1301 
0.000124220      1.85559      172.569 
-0.000132088      3.13560     -150.164 
0.000362252      3.02655     -172.405 
0.000247949      5.00256     -178.167 
0.000101841      3.52931     -162.181 
-0.000116786     0.699714      149.036 
0.000253517      3.07376     -161.801 
0.000416227      1.89526      172.725 
0.000227996      4.89931     -171.076 
0.000130970      1.43220      144.090 
-0.000166697      1.41421      171.870 
0.000419503     0.407922      168.690 
0.000348244      1.41873     -158.499 
-0.000103768      1.73666      151.074 
0.000376050      3.67151      172.488 
0.000220496     0.600000      90.0000 
0.000314752      1.40911      145.408 
-6.34176e-05     0.665733      147.265 
0.000155087      3.49468      174.746 
-2.13969e-05     0.754718      147.995 
4.12919e-05      2.67013     -171.384 
-7.77691e-05      1.35823      166.373 
0.000300976      4.92146     -178.603 
-0.000169926     0.721110      146.310 
0.000111559      2.82305     -172.674 
5.60453e-05      2.60277     -177.357 
-0.000128169     0.393954     -156.038 
0.000147305     0.720000      90.0000 
9.24458e-05     0.747262     -164.476 
5.45010e-05      1.51208      142.524 
3.62986e-05      5.25844     -175.200 
8.89901e-05      2.62968     -153.825 
-1.83913e-05      2.53140     -148.570 
0.000124242      1.38159     -157.891 
7.08284e-05      4.47160     -158.484 
5.35914e-05      4.08705      176.634 
-1.80149e-05     0.610574      148.392 
-5.29217e-05      2.00998     -148.841 
1.79016e-05      3.92326     -159.717 
-3.50858e-05      1.01980     -154.440 
3.52297e-05      1.89061      173.928 
-3.51771e-05      1.32966      164.291 
-5.24157e-05      2.55562     -140.080 
5.23044e-05      3.28098      178.603 
1.72498e-05     0.973242     -170.538 
