! Center RA: 17 51 32.81857,  Dec: +09 39 00.72829 (2000.0)
! Tentative model.
! Flux (Jy) Radius (mas)  Theta (deg)  Major FWHM (mas)  Axial ratio   Phi (deg) T \
! Freq (Hz)     SpecIndex
 0.0738907    0.0400000      0.00000 
 0.0269423    0.0800000      0.00000 
0.00387900     0.126491      18.4349 
 0.0162552     0.164924      14.0362 
 0.0120970    0.0565685     -135.000 
0.00727282     0.215407      21.8014 
-0.000525486     0.344093      54.4623 
-0.00281077     0.169706      135.000 
-0.00396567     0.312410      50.1944 
0.00309346    0.0894427     -153.435 
-0.00319570     0.368782      49.3987 
0.000286215      1.28561      5.35582 
-0.00272427     0.178885      153.435 
0.00120673      1.28996      7.12502 
0.00127520      1.03846      15.6422 
0.00100339      1.32544      5.19443 
0.00110510      1.04000      0.00000 
 0.0109809      0.00000      0.00000 
0.000738240     0.670522      17.3540 
-0.00636663     0.144222      146.310 
9.80229e-05      1.01193      18.4349 
0.000735290      1.07703      15.0685 
0.00250279     0.659697      14.0362 
-0.00854111     0.178885     -26.5651 
0.000370826     0.126491     -161.565 
0.000246032      1.08000      0.00000 
0.000523090      1.32966      6.91123 
-0.00102601      1.00000     -16.2602 
0.00174081     0.430813     -21.8014 
0.000474231      1.12000      0.00000 
-0.00156907      1.08812     -17.1027 
0.00104799      1.87830      26.5651 
-0.000936287     0.395980      45.0000 
0.000327948     0.640000      0.00000 
0.000180932      1.10635      12.5288 
-0.00101239      2.76724      4.14462 
0.000708668      1.16000      0.00000 
0.000779510      2.79428      13.2405 
-0.000734070      1.92042     -1.19349 
0.000390130      1.36528      5.04245 
-0.000251963     0.912140     -15.2551 
0.000344641      2.51205      9.16235 
0.000928712     0.600000      0.00000 
0.000881491      1.14543      12.0948 
-0.00361294     0.113137      135.000 
-0.000560074      1.03846     -15.6422 
-0.000327706     0.291204     -15.9454 
0.000107890     0.164924     -165.964 
0.000688765      2.50567      16.6992 
0.00110401      1.20067     -1.90915 
0.000251293     0.620967      14.9314 
-0.000243976      2.73437      5.87739 
-0.000615507      1.44997      24.4440 
0.00120038      2.55155      9.01932 
-0.000216272      2.77849      6.61346 
-0.000267283      1.88043     -1.21888 
0.000452333      1.00000      0.00000 
3.19088e-05     0.203961     -168.690 
0.00177247     0.240000      180.000 
-0.000526572      1.20333      21.4477 
0.000226342      2.43343      25.3014 
-0.000991186     0.785875     -14.7436 
-2.83885e-05      2.78338      7.43141 
-0.000841261      2.78883      8.24632 
0.000354818      2.60000      22.6199 
-0.000208792      2.69459      5.96449 
0.000376988     0.393954     -23.9625 
0.000400165      1.65602      37.1467 
-0.000162474     0.425206      41.1859 
0.000441668      2.83323      13.0552 
-0.000540612      2.36305      2.91084 
-0.000357321      1.36704     -20.5560 
0.000650229      1.03769     -27.5528 
-0.000539904      1.65747      8.32565 
0.000285881     0.576888     -33.6901 
-0.000508872     0.120000     -90.0000 
0.000423257     0.560000      0.00000 
0.000268823      2.49447      15.8192 
-0.000293730      1.24065      20.7723 
-0.000321944      1.39714      23.6294 
-0.000247251     0.456070      37.8750 
-0.000100648      2.12603      11.9442 
0.000394532     0.960833      2.38594 
-0.000185888      2.16813      29.8760 
-0.000259606      1.78213     -9.03948 
0.000167992      1.59399      17.5256 
-0.000168907      2.16518      11.7251 
-0.000531283     0.126491     -108.435 
0.000109084      2.54275      19.2900 
9.01467e-05      2.57651      27.7585 
-5.33945e-05      1.07703     -15.0685 
-5.31247e-05      2.00878      12.6526 
1.80565e-05      1.40513      4.89909 
-6.96737e-05      1.59298      28.4956 
0.000122248      1.70880     -16.3139 
-3.43595e-05      2.20436      11.5138 
1.69379e-05      1.24065     -1.84761 
