! Center RA: 16 42 58.80997,  Dec: +39 48 36.99402 (2000.0)
! Tentative model.
! Flux (Jy) Radius (mas)  Theta (deg)  Major FWHM (mas)  Axial ratio   Phi (deg) T \
! Freq (Hz)     SpecIndex
-0.0221422    0.0400000     -90.0000 
-0.00285846    0.0894427     -63.4349 
-0.00375232      0.00000      0.00000 
-0.00157736    0.0800000     -90.0000 
-0.0129481     0.126491     -71.5651 
-0.0146279    0.0400000      90.0000 
0.00887813      1.61988     -110.225 
-0.00573219     0.120000     -90.0000 
0.00491447     0.582409     -105.945 
0.00248641      1.58240     -110.726 
-0.00188410    0.0894427      116.565 
0.000750065      1.60449     -85.7108 
0.00140257      2.04157     -87.7543 
0.000937904     0.594643     -109.654 
0.00105966      2.45177     -95.6176 
-0.00107008    0.0800000      90.0000 
0.000944237      1.56051     -88.5312 
0.000115437      1.64779     -84.4278 
0.000109548      2.04353     -86.6335 
0.000985823      2.56500     -86.4237 
0.000206030      1.71020     -79.2157 
-0.000558664      4.20171     -88.3634 
0.000313039      1.38852     -78.3664 
0.000179480      1.96977     -77.0926 
0.000237320      2.42124     -97.5946 
0.000625136      1.71814     -77.9052 
-0.00127397      6.14557     -84.7718 
-0.00128951      3.99940     -98.0491 
0.000788467      1.97909     -75.9638 
-0.000504564      5.48715     -87.0750 
-0.000800606      5.63773     -74.7805 
-0.000537053      6.21456     -79.9920 
-0.00137613     0.178885     -63.4349 
0.000635915      4.40236     -61.8050 
0.000485755      6.74329     -94.7636 
-0.000973452     0.933809     -99.8658 
-0.000854597      8.89584     -78.5890 
0.000232754      2.48805     -94.6106 
-0.000365971      4.24302     -87.8389 
0.000287791      1.38101     -79.9920 
0.000575987      2.20145     -92.0826 
0.000114182      2.25282     -73.4956 
0.000180727      8.55897     -82.2107 
0.000609768      8.27082     -82.4969 
0.000507391      1.94031     -81.7029 
0.000333190      2.44818     -94.6859 
0.000560948      7.06224     -94.5480 
-0.000778123     0.894427     -100.305 
0.000864679      8.25377     -79.6703 
0.000369360      2.24178     -74.4759 
0.000227283      2.41661     -77.5741 
-0.000203604      8.85664     -78.5378 
-0.000976666      8.29920     -72.6130 
0.000540821      5.60143     -96.9728 
-0.000425519      7.15475     -78.0618 
-0.000729906      5.12016     -90.4476 
-0.000712941      5.48525     -87.4923 
0.000375002      1.35351     -124.160 
-0.000738576      3.83604     -101.427 
0.000388233      1.56869     -109.359 
-0.000452932      6.48395     -80.7701 
-0.000344829      8.88801     -78.8418 
-0.000358978      3.91203     -73.9741 
0.000191154      6.85169     -93.3468 
-0.000406295      7.47133     -77.0054 
5.92600e-05      2.42685     -81.4692 
0.000431732      8.07217     -84.8827 
0.000243401      8.51934     -82.1743 
-0.000219448      7.71420     -77.1167 
-0.00102698      8.43175     -69.1576 
-0.000482848      4.24170     -88.3789 
-0.000178241      5.44720     -87.0536 
0.000499739      1.40911     -83.4802 
0.000615283     0.379473     -71.5651 
5.84366e-05      1.68428     -85.9144 
-0.000645932      7.72321     -76.8274 
-0.000211027      6.01771     -77.7190 
0.000310395      8.29583     -76.9018 
-0.000707780      6.02634     -77.3474 
0.000387450      7.89856     -83.0189 
-0.000138178      8.33739     -72.6952 
0.000284892      1.64438     -85.8151 
-0.000140661      6.66753     -70.3693 
0.000186067      8.07584     -84.6000 
0.000332060      2.60461     -100.620 
0.000582291      5.58068     -94.9342 
0.00101063      1.32061     -125.134 
0.000232321      5.53751     -94.5574 
-0.000158668      9.10543     -63.0973 
-0.000256389      3.86036     -79.8545 
0.000354603      2.37756     -77.3666 
0.000869532     0.252982     -18.4349 
0.000639979      9.14637     -72.4367 
-0.000224568      7.76381     -74.4601 
-0.000262676      5.00783     -86.7948 
-5.54653e-05      1.32966     -105.709 
0.000368159      8.40362     -66.7298 
0.000269042      8.08297     -77.1329 
-0.000524878      8.44976     -71.2220 
-0.000131243      3.86761     -79.2711 
0.000192462      8.35110     -66.8735 
0.000420734      2.11092     -99.8193 
-0.000410129      4.83355     -100.008 
-0.00122197      1.34104     -107.354 
-0.000289179      2.86273     -74.6045 
-0.000608958      4.67607     -79.6513 
-0.000374007      4.86621     -99.4623 
-0.000889705      7.93463     -73.3008 
-0.000101471      3.77020     -72.7185 
-9.79618e-05      7.32393     -88.1221 
-0.000194383      3.90118     -74.5388 
-0.000164526      5.55899     -76.2637 
-0.000535015      7.28176     -88.7410 
-2.58061e-05      6.53667     -80.1342 
-0.000372733      9.14112     -63.2107 
-0.000268528      6.89545     -78.6249 
0.000283965      5.13560     -71.8473 
-0.000350206      5.97930     -61.2060 
-0.000479194      5.44059     -70.2328 
7.08216e-05      1.89526     -82.7250 
-0.000149681      5.41479     -85.7636 
-0.000448297      5.61826     -70.0169 
0.000493461      6.36616     -67.4632 
-0.000224188      6.68108     -70.0462 
-0.000191265      3.17238     -84.9364 
-0.000612852      8.56878     -80.0540 
0.000183512      6.60303     -91.7357 
-0.000422563      7.04693     -70.4337 
2.40793e-05      8.09197     -76.8568 
-0.000267091      9.79608     -66.1563 
-0.000113884      4.99616     -96.8974 
-0.000270725      7.32830     -83.4181 
-0.000628631      6.49049     -80.4216 
0.000396203      6.84187     -91.3400 
0.000116188      1.52000     -90.0000 
0.000130777      4.60626     -92.9866 
-0.000655587      3.21123     -76.3100 
0.000619334      1.06733     -77.0054 
-7.76637e-05      7.48524     -87.8562 
0.000318280      4.50848     -62.5256 
0.000297490      4.74384     -72.3290 
-0.000331815      3.82037     -72.3239 
2.31754e-05      2.44524     -93.7517 
-0.000120261      6.86894     -76.5302 
-0.000528522      7.22850     -69.2584 
0.000804194      9.29447     -76.5618 
-2.26512e-05      7.95719     -66.9149 
0.000381369      4.97562     -65.2892 
6.38897e-05      1.23223     -125.754 
-0.000259263      5.08142     -91.3532 
2.23380e-05      8.03990     -84.2894 
0.000173925      2.40133     -91.9092 
-8.46503e-05      9.97100     -65.5941 
-0.000588302      7.97295     -66.6504 
0.000282042      7.96030     -84.2321 
-0.000850233      4.44342     -103.536 
-0.000229078      3.92938     -75.2564 
-0.000151847      6.20774     -80.3556 
-0.000138564      4.32074     -88.9391 
-0.000228826      5.75694     -67.5333 
-0.000143019      7.76216     -76.8947 
-0.000403364      7.75319     -74.7449 
-0.000689741      9.15371     -74.0202 
-0.000409551      7.48385     -88.1623 
0.000318535      9.48034     -69.5005 
-0.000477884      4.99151     -96.4416 
0.000611747      2.69874     -78.0239 
0.000719235      8.28309     -67.2737 
-3.86268e-05      4.82676     -99.5404 
0.000216719      6.80294     -91.6847 
7.56863e-05      2.17366     -77.2425 
0.000442548      7.96994     -70.6557 
-0.000133294      7.14703     -72.0721 
0.000504791      8.13093     -76.9209 
0.000183736      8.98354     -81.2926 
0.000383319      9.15030     -66.0121 
7.22472e-05      1.92042     -91.1935 
-0.000296364      6.47654     -64.3845 
0.000209353      5.63645     -96.5198 
-0.000196479      7.70340     -85.5328 
0.000369559      8.58221     -66.6611 
0.000454924      8.74098     -72.1455 
-9.06957e-05      5.41790     -85.3417 
0.000514002      6.32013     -89.6374 
-0.000462017      6.46096     -94.6164 
-0.000580775      2.84113     -88.3865 
-3.85661e-05      4.18244     -77.2929 
7.23265e-05      1.77539     -104.349 
5.25863e-05      1.25603     -127.235 
-0.000190827      9.93459     -65.4988 
0.000394945      6.19122     -77.3106 
-0.000184945      5.54963     -76.6649 
-0.000180370      5.48131     -91.2545 
-0.000241056      5.91405     -66.9032 
0.000327872      8.91246     -85.1082 
0.000257911      1.63414     -111.541 
6.47156e-05      2.24891     -95.1022 
0.000552288      6.78316     -94.7356 
0.000153986      4.60435     -92.4896 
-0.000213515      3.81408     -80.3401 
-3.62144e-05      4.68956     -98.3374 
0.000497938      4.80150     -91.4321 
0.000101054      8.30499     -76.6331 
0.000398816     0.848528     -135.000 
0.000320058      4.43062     -83.2599 
-1.87674e-05      6.45935     -64.7045 
-0.000298898      5.87251     -99.0132 
-9.38133e-05      6.41411     -72.5820 
-7.10596e-05      6.14934     -84.4007 
8.43951e-05      2.24571     -94.0856 
-0.000261496      4.22147     -77.4123 
-0.000671689      9.45490     -66.0375 
0.000313596      2.58147     -102.529 
8.04305e-05      1.44886     -83.6598 
-0.000648512      9.12929     -67.5926 
8.35554e-05      4.78197     -72.4744 
7.44786e-05      6.72583     -87.6141 
-0.000373997      9.91806     -65.7090 
0.000361099      5.49181     -79.5085 
0.000117222      9.54601     -69.1349 
0.000139089      7.89380     -83.3071 
-0.000429700      8.67696     -84.7099 
0.000418824      3.86264     -105.619 
0.000310553      6.74009     -85.5752 
0.000274275      1.89694     -114.944 
0.000334610      1.62086     -74.2488 
0.000369709      9.10736     -71.5651 
0.000154350      9.62738     -70.5864 
-0.000176895      7.14658     -78.3756 
-0.000135242      6.18294     -81.8175 
0.000475823      4.91089     -66.9852 
-0.000436384      4.82394     -95.7106 
6.00698e-05      2.60768     -85.6013 
0.000143837      9.51227     -71.8698 
-0.000106953      6.54364     -79.7891 
-9.04524e-05      5.64836     -74.3890 
-0.000133999      7.33299     -83.1076 
-0.000437975      5.77235     -67.1663 
-1.65922e-05      6.12470     -92.2457 
-0.000244058      8.08802     -73.6265 
-0.000210470      5.88924     -82.5854 
-0.000139220      7.18510     -72.1703 
-0.000155257      4.44342     -76.4641 
9.48663e-05      9.57639     -70.7325 
0.000245917      8.98968     -81.0406 
0.000514121      7.40616     -67.4515 
-0.000158105      6.12327     -91.8717 
-4.65155e-05      5.00576     -87.2519 
-0.000227204      4.20305     -87.8184 
-0.000187386      5.05157     -81.8057 
-6.78814e-05      7.66686     -72.6995 
0.000181590      2.57309     -101.659 
-0.000244008      5.42070     -101.061 
-0.000210890      4.28019     -74.2753 
0.000196091      2.18833     -108.104 
-0.000282848      7.40216     -70.0963 
0.000229962      9.49442     -69.2744 
-0.000216177      7.70662     -85.2364 
0.000108380      8.27613     -82.2224 
4.40603e-05      2.12603     -78.0558 
-0.000253045      2.82418     -74.3890 
-0.000352484      6.07012     -98.7175 
2.61371e-05      1.78572     -105.593 
0.000182959      7.91656     -84.4911 
0.000111067      1.51789     -108.435 
0.000339814      8.48877     -76.0947 
-0.000207367      4.04534     -65.4623 
-0.000219842      6.81950     -65.3892 
-0.000146674      3.88330     -101.889 
-2.97318e-05      5.88490     -73.4127 
-7.99033e-05      7.11562     -77.9952 
-8.31459e-05      7.64377     -88.2007 
0.000144082      2.40033     -90.9548 
0.000127011      8.28937     -65.7849 
-0.000222455      7.00103     -89.0179 
0.000366470      5.79724     -64.6726 
-0.000236951      4.96403     -87.6909 
9.52776e-05     0.393954     -66.0375 
-0.000197641      5.18212     -81.1193 
0.000155937      2.10447     -98.7462 
0.000200591      4.82411     -74.1199 
-0.000205467      9.12316     -63.4349 
0.000258712      5.64113     -96.9234 
-0.000393639      2.85377     -95.6307 
-2.82322e-05      4.87295     -99.9262 
-0.000237064      3.85850     -72.5042 
-0.000179298      4.67709     -102.848 
8.19395e-05     0.411825     -150.945 
-0.000143358      3.82832     -100.840 
-0.000166995      6.17738     -82.1847 
-0.000149265      2.86356     -102.095 
-0.000132116      5.58856     -76.7595 
-0.000182069      8.75918     -80.5377 
-0.000370077      4.37831     -95.2418 
-0.000205297      5.94643     -72.7839 
1.40987e-05      2.73788     -78.1976 
5.32151e-05      5.11030     -71.2814 
9.15203e-05     0.357771     -26.5651 
-0.000232735      5.60700     -87.1376 
6.55062e-05      9.55221     -68.3768 
-0.000150819      7.64262     -88.5005 
-5.36476e-05      6.17738     -65.9245 
0.000186087      5.09902     -78.6901 
-0.000159970      5.02872     -101.936 
-0.000120294      3.82099     -79.7488 
-0.000181390      6.80000     -64.9424 
9.53763e-05      2.42124     -82.4054 
2.67759e-05      4.79416     -72.0186 
-0.000297039      2.70880     -106.294 
-0.000428740     0.620967     -75.0686 
-3.93857e-05      6.12209     -88.5024 
0.000186329      8.02097     -70.4807 
7.09853e-05      9.53184     -69.3595 
8.33472e-05      9.20313     -65.8858 
-8.23082e-05      5.93094     -93.4799 
-5.77783e-05      5.83301     -99.0748 
5.09491e-05      5.26574     -95.6673 
7.22926e-05     0.432666     -146.310 
0.000145405      6.46579     -98.1802 
0.000192964     0.400000     -36.8699 
0.000169627      9.90870     -68.1986 
-1.29265e-05      4.91137     -102.225 
2.48385e-05      1.58240     -73.8557 
-4.66597e-05      3.94867     -76.5268 
-0.000220132      5.87728     -66.7502 
-0.000188762      5.52130     -91.2454 
-0.000147402      1.96774     -63.4349 
-0.000146665      5.29770     -76.9081 
-0.000252103      6.23025     -65.7387 
-0.000145482      7.37759     -82.8365 
0.000107308     0.425206     -41.1859 
-0.000178306      6.55085     -79.4448 
2.48638e-05      7.12775     -66.1681 
0.000165303      9.53755     -68.6002 
-0.000102497      6.85624     -78.5590 
6.72699e-05      9.26248     -68.1986 
-2.41619e-05      6.22254     -81.8699 
-5.96316e-05      3.96565     -81.2978 
-0.000112649      6.16325     -88.1404 
-0.000109639      7.81025     -76.6755 
0.000108467      4.75613     -71.8698 
-9.59886e-05      5.09384     -103.163 
-7.86608e-05      6.96184     -88.6831 
0.000133728      9.05459     -64.9067 
0.000102217      4.60278     -91.9921 
0.000206609      4.27551     -100.784 
1.23040e-05      8.24670     -79.9437 
0.000184137      1.48000     -108.925 
0.000143366      4.69383     -85.6013 
2.38652e-05      6.32000     -90.0000 
-0.000271079      6.62372     -94.8498 
-0.000109090      3.20899     -85.7108 
0.000208190      6.32923     -67.3244 
0.000184793      6.90159     -82.3395 
-0.000238584      8.71752     -82.3532 
0.000107274      5.09886     -70.2857 
1.21020e-05     0.215407     -21.8014 
-0.000131078      6.65552     -75.3791 
8.49764e-05      4.69570     -69.5582 
0.000181506      5.26194     -95.2339 
-0.000192643      8.43697     -71.4792 
-8.75344e-05      7.32535     -75.1290 
-2.29483e-05      7.02328     -80.1621 
-8.72285e-05      5.37848     -67.2490 
0.000127901      6.57218     -86.5107 
0.000107641      8.64018     -63.3163 
-0.000148190      7.60631     -67.7510 
0.000148870      6.23025     -77.3914 
3.27852e-05      7.85407     -83.2731 
-0.000222077      5.18845     -80.6829 
7.55465e-05     0.411825     -119.055 
-0.000138035      8.68074     -84.4470 
-0.000127669      2.44393     -68.8952 
-0.000171248      5.41361     -98.0702 
-0.000169275      1.64000     -102.680 
3.19441e-05      2.56281     -87.3162 
0.000135508      8.99600     -80.7890 
-1.14041e-05      6.43814     -81.0644 
-8.48904e-05      3.01728     -75.4111 
-0.000138269      3.93080     -102.339 
3.23014e-05      8.91578     -82.5243 
-4.41973e-05      6.03841     -96.4659 
0.000124447      5.90661     -84.5597 
0.000135464      6.84292     -91.6748 
8.34307e-05     0.533667     -102.995 
8.29889e-05      1.84391     -114.341 
4.22383e-05      8.11202     -84.9079 
-3.19753e-05      7.26129     -72.3635 
-7.33362e-05      3.95980     -81.8699 
-8.24035e-05      7.00046     -89.3452 
0.000143698      5.05980     -78.6012 
-8.26255e-05      8.52938     -80.0076 
-2.16150e-05      4.38634     -77.3578 
0.000102153      4.20761     -65.8716 
-2.06582e-05      5.44779     -97.5946 
-5.21699e-05      7.23812     -69.9628 
-5.15326e-05      1.31575     -109.537 
0.000101669      6.04847     -64.9602 
-2.12915e-05      6.14752     -71.8008 
-3.08876e-05      6.73237     -69.8424 
3.13926e-05      8.31577     -82.2597 
7.13154e-05      8.45175     -77.1477 
7.06836e-05      9.16664     -65.7837 
-2.10677e-05      8.86467     -78.2844 
-4.12127e-05      3.96162     -101.650 
-5.06452e-05      4.98959     -102.031 
5.08428e-05      7.92050     -84.2030 
2.04834e-05      1.24258     -86.3086 
-6.07800e-05      9.43050     -75.2564 
-9.09577e-05      6.24820     -87.0643 
-9.05860e-05      4.65876     -66.7368 
-5.05315e-05      6.04305     -96.8428 
6.02915e-05      2.48516     -93.6914 
4.02355e-05      6.89162     -93.3274 
-4.01080e-05      7.20544     -68.8483 
-5.02649e-05      2.90269     -101.929 
-6.00434e-05      6.16013     -71.4474 
2.98645e-05      2.16518     -101.725 
-3.97783e-05      4.26952     -74.7920 
3.04611e-05      4.60157     -91.4943 
3.01344e-05     0.164924      75.9638 
-3.00949e-05      5.01199     -81.7406 
2.98742e-05      9.06942     -71.4851 
2.96524e-05      8.56449     -81.9456 
-2.96912e-05      4.42773     -67.1412 
2.01528e-05      4.58955     -83.4944 
-3.95471e-05      4.00080     -101.535 
-3.94002e-05      1.11212     -127.694 
-3.92223e-05      4.37484     -94.7201 
-4.90903e-05      5.38947     -70.4892 
-2.95727e-05      8.94606     -74.9696 
-1.01162e-05      3.82539     -96.6048 
-3.93755e-05      1.77178     -118.301 
-2.93706e-05      7.28747     -72.7585 
3.90150e-05      5.49924     -79.0987 
-3.91715e-05      2.85012     -94.8304 
-2.94446e-05      8.71321     -80.7539 
1.95079e-05      8.31048     -82.5329 
-1.94386e-05      9.20322     -73.8494 
-9.76829e-06      7.22451     -70.2608 
9.77908e-06      4.54981     -83.4373 
-1.93364e-05      3.87525     -78.6901 
-9.75304e-06      4.32019     -89.4695 
9.75104e-06      4.60070     -90.9963 
-1.93908e-05      5.26802     -76.3858 
-1.93472e-05      9.43873     -66.2594 
9.72044e-06      2.00040     -88.8542 
1.92657e-05      9.50865     -69.0490 
-1.92892e-05      4.38634     -99.9777 
-9.70422e-06      7.00446     -76.1225 
-1.93445e-05      8.01648     -81.1017 
9.69209e-06      6.31392     -67.6594 
-9.64949e-06      3.83020     -97.1992 
-9.57934e-06      6.54290     -78.0031 
