! Center RA: 16 42 58.80997,  Dec: +39 48 36.99402 (2000.0)
! Tentative model.
! Flux (Jy) Radius (mas)  Theta (deg)  Major FWHM (mas)  Axial ratio   Phi (deg) T \
! Freq (Hz)     SpecIndex
 0.0453834    0.0400000     -90.0000 
0.00478741      0.00000      0.00000 
0.00316610     0.200000     -90.0000 
0.00667849     0.243310     -80.5377 
0.00444784    0.0400000      0.00000 
0.000741445     0.203961     -78.6901 
0.000572982     0.160000     -90.0000 
0.00330083     0.120000     -90.0000 
0.00416610      1.68238     -108.004 
0.000961120      1.64438     -108.435 
0.000755528    0.0565685      45.0000 
0.000269576     0.447214     -100.305 
0.000250033     0.252982     -71.5651 
0.00235909     0.441814     -95.1944 
0.00201305      1.65747     -109.747 
0.000857521     0.291204     -74.0546 
0.00185687    0.0400000      90.0000 
0.000278873     0.544059     -107.103 
0.000112137      6.21044     -86.6769 
0.000109924      6.17051     -86.6553 
0.000594679     0.144222      33.6901 
0.000643833      6.25038     -86.6981 
0.00112267      2.28316     -93.0128 
0.000177858      6.12836     -87.0069 
0.000448108     0.557136     -111.038 
0.000185291      6.13058     -86.6335 
0.000874126     0.304631     -66.8014 
0.000665636      5.96335     -91.9220 
0.00112379      4.94514     -99.3099 
0.000248850    0.0800000     -90.0000 
0.000871608      5.52232     -91.6603 
-0.000979013      5.26422     -73.2174 
0.000445851      6.00333     -91.9092 
0.000526273      6.08842     -86.9872 
4.08156e-05     0.407922     -101.310 
8.00482e-05      6.28815     -87.0830 
0.000636661      1.16069     -91.9749 
0.000221924      2.57992     -97.1250 
0.000850685     0.594643     -109.654 
0.000712482      8.14764     -80.6764 
0.000833953      6.28624     -87.4471 
0.000312556      5.77387     -86.0275 
0.000668962      6.30175     -81.9728 
0.000925149      9.32421     -76.8580 
0.000863221     0.509117     -135.000 
0.000441209      5.54444     -84.6185 
6.33994e-05      7.36272     -88.4434 
0.000106138      5.81378     -86.0548 
6.86462e-05      7.36174     -88.7546 
-0.000587331      6.32114     -68.4679 
9.86041e-05      8.15421     -80.3991 
0.00129157      7.32175     -88.7478 
-0.000226068      2.00998     -84.2894 
-0.000705213      7.53233     -67.5206 
0.000717248      2.84253     -92.4195 
0.000202349      2.53551     -96.3402 
-0.00102697      2.04978     -84.4007 
0.00121855     0.169706      135.000 
-0.000213077      9.52546     -70.8803 
0.000369449      1.20599     -95.7106 
0.000308196      6.08473     -92.2605 
-0.000429393      6.01917     -66.5014 
6.14282e-05      5.81116     -86.4483 
0.000753611      5.32962     -93.4422 
0.000117676      6.45005     -86.8005 
0.000446968      4.12989     -98.9149 
-0.000656177     0.861626     -111.801 
0.00100502      8.04627     -72.6460 
-0.000355796      6.44298     -77.0854 
0.000226642     0.582409     -105.945 
-0.000754514      6.22832     -98.4944 
-0.000481739      1.48486     -85.3645 
-0.000973552      4.08333     -60.6728 
0.000323620      5.16140     -91.3322 
8.76114e-05      2.84450     -93.2245 
-0.000303063      4.75798     -82.7555 
-0.000348201      2.72470     -86.6335 
0.000179784      6.32456     -87.8253 
0.000256634      1.96977     -102.907 
0.000950454      2.85797     -96.4287 
0.000305177      6.95333     -84.3878 
-0.000869420      9.56326     -70.9588 
0.000598492      8.96036     -66.8686 
4.73427e-05      4.16346     -98.2858 
-0.000342191      6.30251     -73.4052 
-2.70670e-05      8.79682     -82.4226 
0.000950520      2.90269     -101.929 
0.000478776      8.91498     -65.6199 
-7.38008e-05      6.05521     -74.6785 
0.000629473      2.28140     -92.0096 
0.000601974      2.88111     -91.5911 
0.000101644      5.85969     -94.6987 
-0.000647690      8.75717     -82.3881 
-0.000112841      7.01564     -77.1523 
0.000153010      5.41479     -85.7636 
0.000194291      1.67141     -111.038 
-0.000331532      6.25242     -78.1869 
-0.000101430      8.39390     -67.5902 
0.000204580      4.19752     -97.6668 
-0.000649156      1.47078     -112.380 
0.000276130      10.0740     -67.1001 
0.000121544      2.48032     -90.9240 
0.000203981      7.04557     -87.7224 
0.000356877      1.86118     -118.217 
2.51524e-05      6.08763     -82.8283 
0.000346884     0.521536     -94.3987 
-0.000893911     0.898888     -122.276 
-0.000386514      4.31129     -62.9595 
0.000318425      6.48999     -86.8202 
0.000673906      1.25603     -99.1623 
0.000807134      6.30746     -81.6130 
-0.000657438      7.00685     -77.4712 
0.000203995      6.09275     -82.4551 
0.000284063      8.11478     -80.3520 
0.000383012      7.97847     -67.2917 
-0.000712294      5.93956     -77.5549 
0.000627112      10.1108     -67.1883 
-0.000273560      7.56931     -67.6363 
-0.000252253      8.37874     -67.8430 
-0.000559081      2.72265     -87.4739 
-9.43179e-05      2.85012     -85.1696 
0.000881940      3.96565     -98.7022 
0.000301819      6.12470     -92.2457 
0.000283855      1.96122     -101.768 
0.000676670      5.47123     -99.2557 
0.000255699      5.86310     -95.0883 
0.000170849      7.66634     -77.3415 
8.58868e-05      5.46480     -95.4602 
0.000507444      7.50093     -71.6617 
-0.000335339      9.77572     -68.8952 
0.000406731      7.11697     -67.1820 
0.000409717      1.80710     -117.699 
0.000187810      8.55215     -72.5820 
0.000604216      2.48000     -90.0000 
-0.000329429      6.07184     -66.3058 
-0.000994880     0.233238     -30.9638 
-0.000251956      8.13978     -64.0645 
-0.000348668      8.41579     -67.9457 
-0.000123167      2.41628     -83.3456 
4.30700e-05      1.60100     -102.995 
-0.000761059      6.18191     -94.8252 
-4.27794e-05      7.19611     -84.2577 
-0.000458635      8.58240     -78.1664 
-0.00105407      2.74925     -98.3659 
-0.000127874      9.85600     -70.3149 
0.000123600      5.58813     -84.2486 
0.000413276      9.50562     -73.6241 
2.09605e-05      2.53140     -95.4403 
0.000167744      1.69517     -109.290 
-0.000475322      1.48216     -86.9059 
6.01802e-05      5.17873     -94.8739 
-9.38156e-05      9.81835     -70.2363 
-0.000198342      7.19222     -84.5748 
-0.000725406      9.58833     -63.2212 
-0.000356258      4.80416     -92.3859 
-5.78929e-05      2.64394     -79.5401 
0.000245705      1.16000     -90.0000 
-2.03681e-05      6.48198     -77.1644 
-7.81032e-05      8.59069     -77.9052 
0.000305771      10.2000     -64.9424 
-0.000432393      4.08490     -92.8064 
8.81949e-05      5.20062     -90.8814 
0.000265446      7.80656     -79.6689 
-0.000253568      2.41197     -84.2894 
-0.000439324      3.84187     -75.5297 
0.000353032      2.24321     -93.0665 
0.000463279     0.440000     -90.0000 
3.77052e-05      2.48805     -94.6106 
-0.000173691      5.96483     -68.7694 
9.51013e-05      4.86785     -96.1322 
0.000119243      1.59248     -101.592 
-1.97038e-05      3.85206     -74.9536 
-0.000377865      4.08705     -93.3665 
-0.000239691      9.29963     -68.2901 
-0.000232310      6.49098     -76.8201 
0.000435648      4.44648     -86.9059 
0.000539042      4.12388     -98.3659 
-0.000121593      8.07416     -65.7205 
1.92049e-05      6.74673     -84.8978 
-0.000314333      9.06263     -81.3692 
6.84569e-05      5.00064     -89.0833 
0.000448389      5.10654     -95.8446 
0.000105650      7.08723     -87.4121 
0.000293028      10.0585     -67.3100 
0.000529054      7.70538     -77.4067 
0.000266712      2.16592     -94.2364 
0.000164373      8.59032     -72.6619 
3.67813e-05      5.00016     -89.5416 
0.000167918      2.50503     -109.592 
0.000274061      4.86374     -95.6637 
0.000345919      8.33854     -70.0873 
-0.000393351      7.16279     -91.6000 
7.94287e-05      6.79023     -84.5917 
-0.000138451      5.12640     -73.6861 
0.000297739      8.56420     -72.3267 
0.000136440     0.169706      45.0000 
0.000235546      5.67507     -99.3295 
0.000312365      9.64672     -65.2415 
-0.000336661     0.847585     -109.290 
0.000378150      6.95736     -84.0600 
4.79094e-05      6.04331     -91.8965 
0.000172176      4.53749     -99.1302 
-0.000279679      8.31048     -82.5329 
-0.000380641      6.29984     -77.9052 
-0.000344070      3.99840     -70.1148 
0.000126840      5.82326     -95.1232 
-4.98636e-05      4.79767     -82.8157 
0.000251714      10.1638     -64.8469 
0.000210905      7.49186     -83.2544 
6.57018e-05      3.76085     -91.2189 
-0.000294666      8.92359     -80.4532 
0.000597837      6.08329     -91.8841 
0.000201377      2.92110     -91.5694 
9.53028e-05      8.00340     -79.9257 
-0.000257571      1.68428     -85.9144 
0.000140014      5.84123     -91.1771 
0.000417519      9.87506     -64.0577 
-0.000171015      4.79883     -68.9968 
-0.000171540      6.28395     -68.3340 
0.000112722      8.46735     -85.3937 
0.000221738      9.18730     -76.1453 
-0.000187172      9.46640     -69.7273 
-0.000258374      9.07445     -82.6557 
0.000128390      7.48727     -83.5584 
0.000221676     0.481664     -138.366 
-0.000287488      4.07922     -64.4400 
0.000202390      1.70880     -110.556 
-0.000257521      8.40086     -68.1986 
-0.000392569      6.18876     -98.5491 
-6.09072e-05      7.82989     -71.8427 
-6.25624e-05      4.80267     -91.9092 
0.000167787     0.520000     -90.0000 
-0.000524611      4.71135     -66.4820 
-7.65796e-05      9.13201     -74.5028 
-1.59218e-05      2.65149     -78.6901 
3.05044e-05     0.560000     -90.0000 
3.12596e-05      1.20266     -86.1859 
0.000176420      1.25028     -82.6476 
-0.000193840      5.10654     -84.1554 
-0.000225888      8.02127     -65.8634 
0.000247517      6.05310     -82.4054 
0.000322815      7.08553     -87.7352 
0.000367858      3.86264     -105.619 
-9.65868e-05      9.86955     -70.0963 
-0.000155445      9.42932     -64.6307 
0.000182660      8.62081     -73.8355 
-0.000207860      2.37217     -84.1933 
-0.000332138      4.59913     -103.069 
-1.52627e-05      4.40164     -91.5622 
-0.000356735      5.21981     -103.291 
-0.000103216      4.35633     -76.7294 
0.000340591      8.47065     -85.1240 
-0.000355570     0.203961     -168.690 
-0.000427600      4.40073     -91.0416 
0.000286659      7.96312     -67.5572 
-9.64204e-05      7.23204     -84.6047 
-0.000381700      7.84245     -71.5651 
0.000142870      6.66885     -79.6337 
-0.000242970      8.57578     -79.7908 
-0.000134289      6.84047     -90.6701 
-8.11013e-05      1.68048     -88.6361 
2.88985e-05      5.64227     -88.3750 
0.000266192      7.68042     -89.4032 
0.000148145      6.67617     -79.2960 
-0.000383255      4.84264     -91.8934 
2.87994e-05      2.46739     -109.904 
-7.30946e-05      9.05273     -78.7894 
4.16796e-05      5.07102     -96.3402 
-2.88438e-05      9.21980     -74.3961 
1.45284e-05      7.87949     -74.6939 
0.000195535      6.72976     -70.9189 
-2.73914e-05      4.69093     -65.8391 
-1.44331e-05      2.04626     -85.5154 
-5.64660e-05      5.14245     -84.6442 
4.19477e-05      2.49191     -108.726 
1.43771e-05      5.36015     -89.5724 
7.72666e-05      6.08644     -87.3632 
0.000120860      5.41790     -85.3417 
-0.000212013      5.68310     -67.2250 
-0.000301398      2.08614     -85.6013 
6.33793e-05      5.00256     -91.8328 
0.000178104      5.95154     -98.8925 
0.000185966      7.53159     -83.2902 
-0.000306531      7.94269     -85.6677 
-5.49243e-05      2.16518     -101.725 
-2.76390e-05      4.63068     -70.3129 
-8.60232e-05      9.08282     -74.6785 
-0.000218969      1.28810     -126.158 
0.000111064      7.99650     -80.2079 
-0.000124315      6.88047     -90.6662 
-0.000367009      9.25834     -74.4626 
0.000167226      5.82697     -95.5149 
0.000231361      8.89854     -65.8545 
0.000158582      7.51361     -71.3721 
0.000243540      9.66644     -65.5560 
1.37861e-05      8.92646     -63.6646 
8.63700e-05      3.18496     -78.4078 
0.000188355      2.45406     -109.026 
-5.16191e-05      8.27304     -66.0375 
-0.000187599      4.10307     -60.1858 
0.000196257      8.10817     -80.6306 
-5.95781e-05      5.17873     -85.1261 
-0.000164398      6.70904     -81.7733 
-5.05455e-05      6.81985     -94.3729 
-1.34649e-05      5.97943     -68.4121 
6.46720e-05      8.87694     -75.6507 
0.000206477      8.94427     -63.4349 
0.000254977     0.538145     -131.987 
0.000106944      1.98635     -64.9831 
-0.000185083      6.64434     -92.0700 
0.000261779      4.86687     -64.6986 
-0.000172803      5.18228     -84.6855 
8.77513e-05      7.68260     -69.5836 
0.000158863      5.60014     -89.5908 
5.92810e-05      4.21217     -85.6430 
-0.000139923      9.06872     -81.1193 
-4.99607e-05      2.15741     -100.685 
0.000253002      9.46725     -73.5558 
-0.000281553      7.05464     -65.9056 
-7.24375e-05      2.20436     -101.514 
-9.19746e-05      6.12457     -66.1135 
-6.87001e-05      9.35162     -68.1531 
3.72047e-05      4.52866     -93.5448 
-0.000236300      7.30151     -85.6013 
-0.000193763      3.33179     -85.1792 
-0.000102760      6.86289     -94.6804 
0.000167717      8.24621     -75.9638 
0.000166770      2.30269     -107.176 
0.000121114      5.61712     -79.3302 
0.000229598      6.69197     -70.8069 
-6.98780e-05      9.44288     -69.4155 
0.000143645      6.48790     -87.1729 
-0.000177599      1.53935     -65.4328 
-7.77484e-05      3.76191     -98.5609 
0.000100487      1.82603     -118.811 
-0.000132843      9.97212     -69.8205 
-2.32630e-05      4.36513     -62.7305 
0.000175944      8.86927     -85.3437 
-2.42645e-05      9.49021     -70.0375 
0.000141179      9.36316     -76.9137 
9.79797e-05      9.63004     -65.4576 
0.000121444      8.88693     -75.4008 
5.48091e-05      6.34136     -82.0232 
0.000153223      7.61745     -70.0426 
-0.000163352      8.54204     -67.9993 
-1.20251e-05      5.30796     -74.7070 
0.000108960      1.72325     -111.801 
-6.64040e-05      8.25290     -65.6710 
0.000173574      1.24193     -75.0686 
8.68456e-05      6.99085     -79.7831 
-0.000163047      6.52012     -90.3515 
0.000119841      7.32273     -88.4349 
0.000108597      4.56631     -93.0128 
-3.47769e-05      1.79644     -101.560 
9.80442e-05      7.53891     -71.7573 
-0.000118588      6.14205     -94.8566 
-0.000128162      9.47662     -70.2648 
2.27553e-05      5.20138     -91.3220 
-0.000160691      8.36373     -68.0968 
-0.000150163      8.49847     -75.8329 
0.000160596      8.35225     -69.8293 
-0.000117739      5.09886     -70.2857 
5.32787e-05      4.83256     -96.6544 
7.51234e-05      2.02781     -104.859 
6.57545e-05      6.24820     -87.0643 
6.54734e-05      2.86273     -97.2243 
4.43000e-05      7.95708     -80.1589 
-0.000139450      7.44494     -74.0969 
-6.50709e-05      7.00000     -73.7398 
9.54181e-05      9.54870     -66.5493 
3.29001e-05      6.76390     -74.5666 
-7.41961e-05      7.18955     -76.8142 
-1.13229e-05      6.31253     -70.7614 
1.13058e-05      6.79411     -84.2558 
-0.000106178      2.19672     -100.491 
-4.25976e-05      6.54107     -70.3462 
6.30758e-05      4.52637     -64.3407 
-3.27225e-05      3.75617     -97.9575 
-9.38044e-05      1.75727     -101.821 
8.35525e-05      10.1468     -65.0513 
6.26965e-05      4.90567     -99.3855 
9.40389e-05      8.24786     -77.1095 
6.28547e-05      1.87489     -78.9298 
-6.24123e-05      8.31577     -82.2597 
8.30469e-05      8.20312     -84.1226 
5.26131e-05      6.28458     -87.8114 
7.26291e-05      3.22416     -78.5507 
0.000103305      5.73508     -69.1633 
-9.30003e-05      8.95652     -80.7480 
-5.15728e-05      9.41964     -69.1022 
-9.21114e-05      5.18089     -103.392 
-6.22458e-05      5.83520     -83.7032 
-6.18182e-05      10.0056     -68.6665 
6.18611e-05      4.74788     -80.2996 
2.06987e-05      6.70820     -79.6952 
5.08514e-05      4.11359     -76.5043 
-3.07957e-05      3.88062     -75.6773 
2.06548e-05      6.56293     -80.8821 
-2.06744e-05      1.50785     -111.801 
5.07013e-05     0.215407      111.801 
-1.03353e-05      4.67470     -66.2864 
-5.03030e-05      1.25603     -127.235 
1.02478e-05      6.84292     -88.3252 
2.03220e-05      5.14245     -95.3558 
-2.01542e-05      4.30832     -77.1250 
-2.00825e-05      3.33539     -84.4945 
3.00178e-05      6.57912     -97.6867 
-1.99970e-05      2.35423     -99.7824 
2.98638e-05      6.24628     -87.4308 
-1.98418e-05      8.58697     -62.8381 
9.97683e-06      4.96580     -92.7702 
-9.95886e-06      1.52315     -113.199 
9.94161e-06      1.16276     -93.9452 
9.94592e-06      6.55671     -81.2273 
-9.85670e-06      8.27082     -82.4969 
9.85583e-06      4.70183     -80.6979 
9.84175e-06      5.99106     -98.8334 
9.83622e-06      4.90355     -95.6176 
9.81419e-06      8.98888     -85.4057 
