! Center RA: 22 02 43.29137,  Dec: +42 16 39.97987 (2000.0)
! Tentative model.
! Flux (Jy) Radius (mas)  Theta (deg)  Major FWHM (mas)  Axial ratio   Phi (deg) T \
! Freq (Hz)     SpecIndex
 0.0510531     0.126491     -161.565 
0.00617479     0.120000      180.000 
0.00593753     0.282843     -171.870 
 0.0131386    0.0800000      180.000 
0.00732768     0.322490     -172.875 
0.00590979    0.0894427     -153.435 
0.00608731     0.368782     -167.471 
0.00521045     0.362215     -173.660 
 0.0100074    0.0565685     -135.000 
0.00671768     0.407922     -168.690 
0.00266959    0.0400000      180.000 
0.00263667     0.401995     -174.289 
0.00144635     0.441814     -174.806 
0.00425042    0.0400000     -90.0000 
0.00207196     0.481664     -175.236 
0.00225855      1.40057     -178.363 
0.00183165     0.520000      180.000 
0.000189062      1.48216     -176.906 
0.00106155      3.20225     -177.852 
0.000840503      3.73374     -175.083 
6.10369e-05      3.16101     -178.550 
0.00179120      2.04353     -176.634 
0.000375964      1.52210     -176.987 
0.00265523     0.243310     -170.538 
-0.00278257     0.312410     -140.194 
0.000781673      3.64088     -178.741 
0.000301141      4.70183     -170.698 
0.000655157      3.74977     -168.930 
0.000100747      3.77041     -175.741 
0.000194419      2.28281     -168.887 
-0.000646058     0.393954      156.038 
0.000572890      5.30298     -168.690 
0.00130568    0.0894427     -63.4349 
0.000857508      9.32901      155.963 
0.000172934      2.24357     -168.690 
0.000331355      1.37928     -163.142 
0.000409477      3.80757     -176.386 
0.000757594      4.70846     -170.218 
0.000556110      2.92684     -176.082 
0.000685658      6.10220     -165.964 
0.000248404      1.36235     -176.634 
0.000449684      5.75013     -168.768 
0.000171347      1.56205     -177.064 
-0.00123210      8.71642      167.813 
0.000198073      3.73052     -175.696 
0.000436596      2.68000      180.000 
-0.00126272     0.411825      150.945 
0.000847067      5.81997      156.077 
0.000253925      2.38730     -171.327 
-0.000676366      7.54231      159.835 
0.000401611      5.30554     -174.375 
0.00122110      3.24222     -177.879 
0.000376062      5.18845     -170.683 
0.000743789      4.90306     -168.232 
0.00113793      5.37208     -176.158 
-0.000333894      4.56070     -158.385 
0.000369895      2.40000      180.000 
-0.000642272      6.63096      174.461 
0.000567619      1.56051     -178.531 
-0.00107689     0.291204      164.055 
-0.000847946      6.50243     -162.457 
0.00100124      6.16208     -178.512 
0.000881509      2.48516     -176.309 
-0.000209509      4.96258     -159.228 
0.000275877      7.76093      179.114 
-0.000295782      2.57029     -159.027 
0.000761073      7.49293     -176.634 
-0.000644235      8.94302      168.389 
0.000566253      5.81378     -169.695 
-7.16266e-05      8.95116      168.138 
-0.000929415      2.33238      174.094 
0.00102333      4.44792     -168.589 
0.000281445      2.15741     -169.315 
0.000669791      1.32242     -176.532 
-0.000313484      4.80616     -157.490 
-0.000282772      7.15240      174.544 
0.000197944      4.79533      152.152 
0.000343138      4.16557      168.366 
0.00118793      9.00631      161.887 
-0.000273569      5.31263      161.565 
0.000370084      1.35351     -161.030 
-0.000262456      7.26911      172.093 
-0.000254615     0.169706      45.0000 
0.000109590      5.92770     -166.339 
-0.000293688      4.95758     -165.515 
0.000172652      3.77020     -162.719 
0.000154815      9.45490      156.038 
-0.000438211      6.28013      164.105 
9.70437e-05      5.33457     -169.196 
3.31978e-05      3.45879     -174.026 
0.000300502      5.70375     -174.769 
0.000334533      4.37831     -174.758 
-0.000152191      7.31158      162.160 
-0.000547949      4.57559     -157.920 
0.000283135      3.41901     -173.956 
0.000553126      3.73202     -162.536 
0.000174885      4.97691      151.169 
-0.000670872      8.21209      152.436 
-0.000413662      5.00000     -159.390 
-0.000562914      5.04508     -165.303 
0.000614552      8.48170      174.316 
0.000376980      5.36656     -169.695 
0.000678209      8.83955      154.826 
0.000453742      2.44000      180.000 
0.000196190      3.60089     -178.727 
-0.000107381      6.31861      164.204 
-0.000282370      2.25743      172.875 
-0.000141510      7.96241      168.408 
0.000359905      1.12071     -177.955 
0.000500909      8.95545      166.833 
0.000358355      5.88884     -166.247 
-0.000357579     0.362215      6.34019 
5.78590e-05      6.19484     -171.085 
-0.000109491      4.45708     -158.962 
0.000316670      8.19453      154.561 
0.000353023      4.83073      152.374 
-0.000158674      7.41296      158.141 
0.000180016      1.92167     -177.614 
0.000477550      5.58068     -175.066 
-0.000353949      6.99497      161.669 
0.000810155      6.75479     -169.422 
0.000441302      1.34937     -168.024 
-0.000224297      7.79179     -164.822 
0.000232219      2.42685     -171.469 
0.000347558      3.80757     -170.933 
-0.000215532      5.50462      157.348 
0.000837354      6.23436     -171.142 
-0.000427024      8.27923      170.265 
-0.000562155      7.56624      160.224 
0.000226661      4.41814     -174.806 
-0.000187939      5.73355      165.867 
0.000440357      2.72029      179.157 
-0.000293702      7.10898      169.955 
-0.000418685     0.144222      33.6901 
-0.000189282      7.27351      162.063 
0.000555297      9.49147      156.136 
0.000479803      4.96145      150.542 
0.000100588      3.59221     -172.321 
-0.000363486      7.18855      174.892 
0.000356348      2.11811     -169.114 
0.000366879      6.60981     -176.878 
0.000561857      4.94223     -168.326 
-0.000734574      7.37585      158.025 
-0.000572400      7.46105      175.696 
2.69597e-05      5.14898     -170.611 
-0.000120106      2.60768     -159.341 
-0.000651292      7.65768      176.106 
-0.000246827      4.04079      178.866 
0.000266361      5.84123     -164.917 
0.000338152      7.83551      153.958 
0.000493094      9.29249      155.862 
0.000127975      2.44033      179.061 
0.000316952      1.84391     -167.471 
-0.000805462      8.03293      168.802 
-0.000166355      6.99497      166.441 
0.000194713      7.88497      177.965 
0.000219912      6.97389     -176.383 
-0.000484551      5.19892     -161.147 
0.000430888      6.11202     -165.600 
-5.02512e-05      6.88279      160.301 
0.000102698      4.15769      168.906 
-0.000456530      4.44288     -159.444 
-0.000332344      7.96894      161.565 
0.000218651      2.42124     -172.405 
0.000564415      4.90306     -154.898 
-0.000243547      6.13775      172.134 
9.40527e-05      8.33930      155.033 
0.000216690      6.87779     -173.991 
0.000313152      4.86687     -154.699 
-0.000349577      7.40389     -178.142 
8.74950e-05      8.08040      179.433 
0.000622144      2.60000      165.750 
-0.000479123      6.98994      168.111 
0.000152942      8.17743      154.814 
0.000466015      7.37043      152.879 
-0.000337501      6.84514      160.189 
2.37226e-05      5.14261     -171.051 
-0.000330097      6.27401     -161.796 
-0.000285232      2.92329      163.301 
-0.000316533      6.63494      174.118 
0.000283891      5.80386      156.438 
0.000125238      9.28500      162.190 
6.74858e-05      5.46245     -165.150 
0.000325587      6.72298      178.295 
0.000814965     0.521536      175.601 
-0.000665866     0.823650     -150.945 
8.67117e-05      8.08010      179.716 
-6.41374e-05      7.63623      158.812 
0.000491577      2.89607     -147.407 
0.000730588     0.447214     -169.695 
0.000274350      5.70824      151.998 
7.77690e-05      7.84500      177.955 
-0.000756089      6.95977      154.466 
-0.000245080      6.29234     -157.184 
-4.18127e-05      6.12679      168.323 
-0.000190537      5.77235      165.964 
-0.000451060      8.44038      163.197 
-0.000428420      4.00080      178.854 
0.000181812      1.88043     -178.781 
0.000344486      3.44093     -144.462 
4.38449e-05      6.83801     -173.956 
0.000259776      3.59778     -171.690 
0.000302567      5.17038      171.995 
0.000647353     0.126491     -71.5651 
0.000252925      8.30306      154.916 
-0.000283036      6.68563     -158.962 
0.000592543      8.43810      160.620 
0.000482886      9.09373      167.553 
0.000171099      5.42380     -165.041 
0.000528095      5.53852     -169.177 
0.000325125      7.64168     -178.800 
2.14890e-05      2.96108      178.452 
-0.000770763      1.13772      169.875 
0.000437629      7.33354      149.519 
0.000113132      9.27284      162.425 
0.000267539      4.01995     -148.841 
-6.09272e-05      7.95447     -168.690 
0.000217663      3.84749     -176.424 
-0.000707613     0.344093     -144.462 
7.86952e-05      6.67473     -174.153 
-0.000197155      2.89800     -159.814 
-5.94278e-05      4.77074      159.894 
0.000387896      6.88570      177.669 
-0.000141007      7.03386      166.517 
-0.000630575      4.48714      168.690 
0.000158985      3.08700     -148.782 
0.000450107      8.91650      166.774 
4.02528e-05      2.92110      178.431 
0.000158432      4.48642     -148.861 
-0.000374560      8.40362      156.730 
0.000432278      8.21365      154.933 
8.05196e-05      1.60050     -178.568 
-0.000226109      7.99370     -168.746 
0.000580326      6.58337      154.058 
0.000106723      4.37922      163.551 
-0.000234892      3.09477     -153.104 
0.000253762      4.25469     -170.803 
7.31875e-05      8.35627      154.784 
0.000177710      7.10211     -175.478 
0.000288198      1.36059     -178.315 
-0.000371284      2.59384     -153.435 
-3.82528e-05      7.09625      161.259 
-0.000165335      8.30778      169.177 
-0.000200117      4.42900     -159.928 
8.98367e-05      5.74359     -174.806 
0.000278549      5.29120     -163.757 
0.000165571      5.52710     -177.096 
-0.000420909     0.961665     -163.072 
-0.000441200      7.60474      152.087 
-0.000145810      8.84832      159.353 
9.27328e-05      5.54833     -174.207 
-0.000670386      7.36391     -178.132 
5.86394e-05      6.20206     -178.522 
-5.68966e-05      5.05157     -159.125 
-0.000131602      7.27472      171.781 
-0.000300618      2.21775      172.747 
0.000498286      4.86621      152.592 
-0.000512526      4.66922      154.093 
0.000243498      4.87229     -167.675 
7.35932e-05      8.04040      179.430 
-1.90774e-05      8.98220      168.440 
0.000106327      5.08567      172.316 
8.74073e-05      3.56808     -142.745 
0.000442360      2.88028      179.204 
0.000455650      7.87147      154.086 
9.19060e-05      5.60057     -179.182 
0.000326915      9.09083      155.014 
-0.000118470      6.09813      172.082 
-0.000491649      5.01422     -158.962 
-0.000348785      4.85255     -150.900 
-0.000153595      7.13896      175.823 
-0.000381769      4.08725     -159.969 
0.000333075      6.52196     -178.594 
0.000343282      9.39932      162.413 
0.000136984      3.41503     -174.623 
0.000231843      6.53948     -165.114 
0.000106451      5.36954     -176.583 
-0.000327100      8.67041      163.655 
-0.000132351      8.17274      162.629 
0.000198379      4.50156      174.391 
0.000359646      6.94228      149.149 
-9.90785e-05      4.74721      159.274 
-0.000252616      6.06432      169.357 
0.000157805      3.24493     -149.642 
-0.000463487      7.65506      176.405 
0.000325216      6.97653     -176.055 
0.000168267      4.65721     -175.073 
0.000180328      6.67892     -173.811 
0.000165595      8.82632      172.972 
0.000166323      8.04090      179.145 
-0.000170891      7.03295      161.771 
-0.000193853      7.07819      146.759 
0.000119940      1.93494     -172.875 
4.95087e-05      3.32000      180.000 
-1.69266e-05      3.07584     -159.444 
-7.18445e-05      4.03584     -166.239 
-0.000355656      8.88576      159.444 
-0.000444317      5.08378     -165.417 
0.000124428      4.28280     -147.200 
3.27598e-05      1.93080     -166.827 
3.15619e-05      8.89521      155.279 
0.000110152      5.88218     -160.949 
-0.000219537      7.28593      161.764 
-1.66927e-05      4.52124      166.701 
-0.000152892      4.56246     -152.312 
-0.000109099     0.329848      14.0362 
0.000162942      9.10675      158.619 
-0.000261376      6.04331      178.103 
-0.000169807      4.12388      171.634 
-0.000128449      4.08078      178.877 
-0.000187983      6.95609     -166.363 
-0.000192648      4.53061      166.209 
0.000143316      5.04603      172.255 
-4.56968e-05      8.24621     -165.964 
9.71626e-05      7.94269      175.668 
1.60051e-05      8.93156      155.386 
-0.000190655      3.11333     -159.702 
-0.000401781      2.73437      174.123 
0.000252429      5.93309     -160.710 
0.000327218      5.45234      165.556 
3.12084e-05      9.42270      156.482 
-0.000293102      7.16938      173.271 
0.000372324      4.54137      174.440 
0.000279717      7.84653      177.663 
1.57851e-05      5.74943      158.791 
0.000205327      5.86679      174.523 
0.000172232      6.65204     -176.553 
-0.000188985      6.06116      163.120 
-0.000193300      7.17886      175.846 
-0.000121965      7.11168      146.936 
-0.000110260      5.17873      175.126 
5.87907e-05      8.86603      173.003 
4.55952e-05      4.30256     -174.130 
-0.000128165      3.64790      176.228 
7.06620e-05      3.53633     -142.352 
-0.000155711      8.23981      170.218 
3.01462e-05      3.36000      180.000 
0.000139813      9.02016      173.379 
0.000199462      8.13663     -176.336 
0.000184886      4.36807      164.055 
0.000133973      5.76403      158.420 
0.000100774      5.84616      170.151 
-1.52182e-05      7.19222      174.575 
0.000200646      5.25281     -163.635 
0.000125129      7.35706      164.226 
0.000350167      3.33946      173.811 
-9.84877e-05      2.86049     -159.538 
-0.000177490      6.25549     -157.042 
-0.000169084      5.35059      161.701 
4.13778e-05      8.98087      161.565 
0.000190812      4.26127     -147.653 
-0.000230016      3.96081      178.843 
4.22790e-05      9.44356      156.801 
3.92585e-05      8.00000      180.000 
-0.000127943      5.38858     -161.834 
-2.87608e-05      6.37595     -162.474 
-0.000104788      8.91201      168.085 
0.000143551      3.26533     -149.036 
-1.46371e-05      8.98443      159.952 
0.000108039      5.19230      158.772 
-3.99377e-05      6.18553     -161.917 
0.000124159      7.49667      172.951 
9.38446e-05      8.83131      172.714 
-0.000128373      4.57086      171.444 
-0.000265232      5.78024     -155.031 
0.000103117      3.21223     -174.999 
-0.000191624      1.41421      171.870 
-0.000189808     0.322490      7.12502 
0.000153603      4.26277     -174.075 
-5.22605e-05      5.76222      178.409 
6.35231e-05      4.52071     -149.123 
5.21761e-05      3.05287     -148.392 
-6.67092e-05      5.42498      174.500 
-0.000100946      7.22839      174.920 
-8.96214e-05      6.16117      156.264 
-0.000152688      8.23067      152.190 
0.000151034      5.36805      163.996 
0.000104343      5.14058      159.027 
-0.000100383      9.02202      160.039 
-1.39363e-05      2.73408     -159.444 
-0.000200239      3.67151     -156.228 
0.000137929      8.85889      155.171 
-0.000101535      6.86941      160.615 
0.000175412      4.88098      167.217 
0.000175790      5.78066     -161.440 
-7.55229e-05      6.22357     -162.031 
0.000110448      5.62750     -166.853 
-2.66808e-05      4.47571     -155.726 
2.72268e-05      5.87891      170.602 
5.15586e-05      8.24010     -179.722 
-8.78999e-05      6.64831     -158.839 
7.47323e-05      6.48111     -178.939 
-7.66997e-05      5.23679     -161.288 
0.000186521     0.164924     -75.9638 
0.000184862      7.69519      173.134 
0.000112078      9.03203      162.207 
-0.000185298     0.788923     -149.534 
-8.57501e-05      6.71869     -160.163 
-2.62483e-05      8.28502     -166.031 
3.88124e-05      4.44072     -178.968 
-4.93241e-05      3.78904      169.046 
-0.000133256      4.52707     -152.076 
9.89292e-05      1.34164     -169.695 
0.000182561      6.39250      171.363 
-7.40243e-05      7.23514      171.736 
3.86430e-05      5.66646     -166.945 
-7.37557e-05      6.12836      177.007 
6.05119e-05      8.16980     -177.194 
0.000170101      7.69353     -166.470 
0.000144758      9.13770      163.469 
3.72966e-05      4.05423     -149.133 
2.46948e-05      5.83520     -163.677 
2.44047e-05      4.88361      153.225 
-6.23381e-05      6.08329      178.116 
6.23698e-05      5.83945      170.538 
2.50358e-05      9.04610      162.767 
-7.27141e-05      3.13560     -156.705 
-0.000108129      6.67473      174.153 
-0.000178603     0.377359     -147.995 
1.28772e-05      5.88313      157.620 
-0.000108210      4.72068      179.029 
-8.48524e-05      3.60799      176.186 
0.000118994      4.91203      173.454 
-5.02366e-05      7.59052      160.610 
4.93250e-05      5.32962     -176.558 
8.38198e-05      9.47536      156.357 
-3.79809e-05      6.92370      154.323 
0.000119619      6.86743      171.964 
6.03423e-05      3.31059      168.147 
9.59573e-05      7.36804      163.926 
-3.58380e-05      8.26849      169.125 
-9.48661e-05      7.02100      168.498 
8.34087e-05      7.49186      173.254 
9.53277e-05      9.08423      158.292 
-3.57812e-05      5.46114      174.958 
4.72230e-05      3.51204     -142.869 
-1.24801e-05      8.42890      163.457 
1.24454e-05      3.28390     -177.207 
-9.47052e-05      6.79765      153.435 
3.62423e-05      6.92867      148.696 
-5.93200e-05      7.33877      157.909 
-9.36315e-05      6.91722     -166.285 
3.53420e-05      6.06340     -165.872 
-2.38714e-05      2.80913     -160.017 
-9.42913e-05      3.93650     -152.133 
-5.92060e-05      6.02501      169.287 
4.77861e-05      3.80841     -162.897 
9.35385e-05      5.98411     -160.475 
4.69949e-05      2.24000      180.000 
4.73058e-05      4.48071     -178.977 
-1.21792e-05      7.80666      158.035 
8.19380e-05      6.68299      178.285 
4.69310e-05      7.40616      167.840 
-9.31196e-05      7.61514      160.994 
1.20993e-05      6.90159      172.340 
-5.82040e-05      2.54024     -153.838 
6.99091e-05      6.90797      148.979 
2.35277e-05      5.74359      152.186 
8.13353e-05      5.10325      158.866 
1.19930e-05      7.12640     -163.701 
2.34539e-05      3.40000     -171.203 
5.80399e-05      1.62432      170.074 
4.64970e-05      6.88744      177.337 
-4.65486e-05      8.40210      163.118 
2.33119e-05      5.92014     -157.767 
2.33594e-05      2.07885     -168.906 
-2.35788e-05      7.25589      176.207 
6.93005e-05      7.08802     -163.610 
6.92222e-05      7.12337     -169.321 
-5.76702e-05      8.80227      164.448 
-6.89469e-05      1.90074      171.529 
6.89252e-05      5.72797      169.946 
2.29911e-05      5.20692      158.362 
-1.17076e-05      2.21305      173.774 
3.42203e-05      4.02810     -147.572 
-1.15943e-05      4.59077     -157.457 
2.28933e-05      2.08346     -176.698 
3.42613e-05      3.84666     -163.072 
-3.41877e-05      9.06872      171.119 
2.27556e-05      5.51014     -154.179 
-2.29071e-05      7.21875      175.869 
1.14514e-05      4.24848     -171.336 
-1.14385e-05      3.92020      179.415 
-1.14582e-05      6.05851      172.030 
2.25893e-05      6.48197     -178.586 
2.26271e-05      8.65517      171.495 
-1.13439e-05      7.03420      157.957 
-1.13249e-05      5.39303      150.202 
-2.24922e-05      8.01359      165.548 
-1.12383e-05      4.69110      168.690 
1.12144e-05      6.92739      177.352 
-1.12035e-05      4.13860     -159.638 
