! Center RA: 15 12 50.53293,  Dec: -09 05 59.82981 (2000.0)
! Tentative model.
! Flux (Jy) Radius (mas)  Theta (deg)  Major FWHM (mas)  Axial ratio   Phi (deg) T \
! Freq (Hz)     SpecIndex
0.00511350    0.0400000      0.00000 
0.00627136      0.00000      0.00000 
0.00322498    0.0565685      45.0000 
0.000259128    0.0894427      26.5651 
0.00282029     0.256125     -141.340 
0.000348184     0.126491      161.565 
-0.000556173      1.95346     -47.4896 
0.000595017      3.42345     -30.1601 
0.000320953     0.126491      18.4349 
0.000621572     0.164924      165.964 
0.00314135      1.57632     -35.7067 
0.00118533      3.68782     -24.3411 
-0.000952840      1.98071     -46.6366 
0.00124518      3.76977     -19.2040 
0.000295815    0.0565685     -135.000 
0.00199422     0.737564     -12.5288 
0.000949066     0.754718     -32.0054 
-0.000612064      1.89694     -47.5638 
0.00309112     0.203961      168.690 
0.000345312     0.164924      14.0362 
0.00181109    0.0894427     -116.565 
-0.00148337      1.88680     -57.9946 
0.000219804      3.38892     -30.4998 
0.000754902     0.203961      11.3099 
-0.000294411      2.20690     -43.5312 
0.00180883      3.75681     -18.6279 
-0.000720153      1.76182     -50.5275 
-0.000719163      4.45601     -36.9728 
-7.05987e-05      1.86590     -59.0362 
-0.00134716      2.29260     -42.8789 
0.000661688     0.788923     -30.4655 
-0.000236868      4.67059     -28.1014 
0.000118778      3.32024     -31.2005 
-0.000565385      1.52840     -6.00901 
-0.000281416      4.72474     -28.3008 
0.000517082      1.89188     -13.4486 
-0.000774115      1.78885     -63.4349 
-0.000681054      1.73666     -51.5463 
-0.000202795      4.76000     -28.0725 
-0.000160892      3.97955     -39.2894 
0.000619492      1.66469     -35.2176 
-0.000675601      4.63534     -28.3342 
0.000104192      3.28609     -31.5618 
-0.000294885      2.64877     -38.2544 
-0.000823696      3.95434     -38.8408 
0.000132612      3.67151     -23.7723 
0.000220101      3.25208     -31.9307 
-0.000322346      1.90830     -56.9761 
-0.000563382      5.35836     -41.0652 
0.000520612     0.823650     -29.0546 
0.000258518      1.54402     -36.5730 
-0.000172054      4.04178     -38.5713 
-0.000741840      2.68030     -37.7250 
-0.000245152      4.63862     -32.3196 
0.000428966     0.963328     -48.3665 
0.000385169      2.09571     -13.2405 
-0.000160379      1.48862     -6.17017 
0.000223392     0.243310      9.46232 
-0.000154644      2.06456     -35.5377 
0.000252240      1.41365     -25.1148 
0.000327199      1.97585     -31.7595 
-0.000431971     0.393954     -23.9625 
0.000112969      1.40000     -53.1301 
-0.000286441      3.80841     -36.0274 
0.000356013     0.747262     -15.5241 
-0.000181491      4.07313     -38.2204 
0.000108242      3.21820     -32.3073 
3.74483e-05      1.46697     -25.8664 
-0.000106137      1.53310     -7.49586 
0.000175472      1.45602     -52.8153 
3.55333e-05      3.70815     -23.5232 
0.000102835      2.79084     -27.2996 
-6.86621e-05      4.67247     -32.0574 
-6.84094e-05      2.03214     -36.1932 
-3.40139e-05     0.680000      0.00000 
-6.74910e-05      3.98557     -38.4802 
3.34571e-05      1.96163     -20.2826 
