! Center RA: 22 02 43.29137,  Dec: +42 16 39.97987 (2000.0)
! Established model.
! Flux (Jy) Radius (mas)  Theta (deg)  Major FWHM (mas)  Axial ratio   Phi (deg) T \
! Freq (Hz)     SpecIndex
  0.754729      0.00000      0.00000 
  0.545649    0.0200000      0.00000 
 0.0244153     0.121655     -170.538 
 0.0340951     0.141421     -171.870 
 0.0503901    0.0400000      0.00000 
  0.142397     0.161245     -172.875 
 0.0101191    0.0447214      26.5651 
  0.140426    0.0632456      18.4349 
 0.0437667     0.181108     -173.660 
 0.0179241     0.203961     -168.690 
 0.0248920     0.325576     -169.380 
 0.0705612     0.345254     -169.992 
 0.0255288    0.0600000      0.00000 
 0.0602486     0.364966     -170.538 
 0.0118631     0.164924     -165.964 
 0.0898513    0.0824621      14.0362 
 0.0673518     0.145602     -164.055 
 0.0337766     0.384708     -171.027 
 0.0306618     0.388330     -168.111 
 0.0628358     0.101980      11.3099 
 0.0171972     0.404475     -171.469 
 0.0323588     0.407922     -168.690 
0.00963534     0.200000      180.000 
0.00251793     0.126491     -161.565 
0.00914208     0.116619     -149.036 
 0.0124364     0.424264     -171.870 
 0.0151116     0.121655      9.46232 
 0.0153171     0.220907      174.806 
0.00799143     0.100000     -143.130 
0.00595709     0.427551     -169.216 
 0.0130068     0.164924      14.0362 
0.00547930     0.398497     -162.474 
0.00853886    0.0848528     -135.000 
0.00585752    0.0800000      0.00000 
 0.0124080     0.386264     -158.749 
0.00169555     0.444072     -172.235 
0.00941209     0.189737      18.4349 
 0.0133118     0.240832      175.236 
0.00462322    0.0447214     -26.5651 
0.00472549     0.441814     -174.806 
0.00793005     0.113137     -135.000 
 0.0227998     0.208806      16.6992 
0.00918900     0.461736     -175.030 
 0.0145040    0.0632456     -18.4349 
0.00395520     0.367696     -157.620 
0.00127248     0.260768      175.601 
 0.0123002     0.100000     -126.870 
 0.0157967     0.375766     -154.799 
0.00301460     0.243310      170.538 
0.00977584     0.263059      171.254 
0.00717893     0.481664     -175.236 
0.00194926     0.282843      171.870 
0.00643517      1.45121     -172.875 
0.00114917     0.360555      176.820 
0.00723069     0.501597     -175.426 
 0.0113680      1.45382     -172.093 
 0.0197282     0.357771     -153.435 
0.000860065     0.322490      172.875 
 0.0104155     0.215407      21.8014 
0.00164919     0.223607      169.695 
0.00516394     0.342345      173.290 
0.00156071      1.47105     -172.972 
0.00426616     0.203961      168.690 
0.00599825     0.141421     -135.000 
0.000765380     0.228035      15.2551 
0.00361121      1.48054     -178.452 
0.00521313     0.128062     -128.660 
0.000729433      1.65747     -171.674 
0.00142326      1.47363     -172.200 
0.00373952      1.67726     -171.773 
0.00137221    0.0721110     -33.6901 
 0.0152378     0.184391      167.471 
0.00557013      1.34000      180.000 
0.00549041      1.62505     -166.477 
0.00374476     0.300666      3.81407 
0.000677099      1.60562     -166.310 
0.00772659      1.65469     -172.360 
0.00117515      1.50053     -178.472 
0.00125561    0.0721110      33.6901 
0.00444937     0.362215      173.660 
0.000629797    0.0721110     -56.3099 
0.000625512      1.52118     -177.739 
0.00116403      1.54117     -177.769 
0.000592033      1.67451     -172.451 
0.00584275      1.36308     -165.556 
0.00469061    0.0721110      56.3099 
0.00460807      1.66301     -176.553 
0.00214014    0.0848528     -45.0000 
0.00290359     0.521536     -175.601 
0.00406213      1.69706     -171.870 
0.00672464     0.320000      0.00000 
0.00749662      1.32000      180.000 
0.000541724      1.86526     -175.696 
0.00788698      1.88521     -175.741 
0.00100973     0.116619     -120.964 
0.00305463      1.64451     -166.640 
0.00807161     0.223607      26.5651 
0.00500374     0.523450     -173.418 
0.00256502      1.52053     -178.493 
0.00567007      1.34373     -165.343 
0.00136133    0.0894427     -63.4349 
0.00132107      1.94987     -169.958 
0.00198107     0.382099      173.991 
0.00351274      1.43402     -171.983 
0.00542283      1.96957     -170.059 
0.00187675      1.66397     -166.799 
0.00197766      1.64195     -177.207 
0.00281104    0.0800000      90.0000 
0.00480592     0.100000     -53.1301 
0.00296378      2.28543     -171.444 
0.00196842     0.384708      171.027 
0.00414724      1.64924     -165.964 
0.00473395     0.402492     -153.435 
0.000382642      1.79254     -169.066 
0.00241704      2.46203     -177.672 
0.00638193    0.0824621      75.9638 
0.000377910      2.26874     -170.870 
0.000720251      2.15379     -169.838 
0.00443532      1.90515     -175.786 
0.00173746      1.32015      179.132 
0.00469731     0.404475      171.469 
0.000361200      1.79644     -168.440 
0.00479967      1.98927     -170.159 
0.00270397     0.809938     -159.775 
0.00112927      2.35228     -174.144 
0.000499048     0.156205     -140.194 
0.000343962      1.81604     -168.566 
0.00210084      2.35032     -174.629 
0.00515241     0.340588     -3.36646 
0.000945379     0.126491     -108.435 
0.00117747      1.52013     -179.246 
0.00264887      2.15741     -169.315 
0.000950719     0.769415     -152.103 
0.00109101      1.30000      180.000 
0.00262263      1.10653     -173.774 
0.00136856      1.66193     -177.241 
0.000328170     0.216333     -146.310 
0.00450576      1.26649     -158.703 
0.000903805      1.50013     -179.236 
0.000320650      1.80056     -167.816 
0.00113367     0.233238     -149.036 
0.00431054     0.667533      171.384 
0.000303243      1.82011     -167.949 
0.00317438      2.48129     -178.152 
0.00157203      2.30521     -171.518 
0.000821666      1.83967     -168.079 
0.00510361     0.778974     -150.803 
0.000285289      2.01246     -169.695 
0.000280695      1.91416     -169.160 
0.00115277      1.35823     -166.373 
0.000481791      2.03214     -169.796 
0.00422055      2.30009     -179.502 
0.00214286     0.121655     -99.4623 
0.00288248      2.20581     -175.840 
0.00801405      1.63230     -172.962 
0.00294087      2.77417     -174.207 
0.00227554     0.295296     -151.699 
0.000693103      1.99279     -169.592 
0.00247203      1.62985     -165.793 
0.00117943      2.17366     -167.242 
0.00269807     0.506360     -170.910 
0.00379965     0.113137     -45.0000 
0.00243455     0.456070      164.745 
0.000723159      1.82439     -167.335 
0.00115712      7.33741      174.212 
0.00276233      1.08665     -173.660 
0.00176666      1.52000      180.000 
0.00304387      2.90110     -178.420 
0.000688574      2.02010      179.433 
0.00305997     0.233238      30.9638 
0.00164181     0.170880      159.444 
0.00235637     0.942550     -162.719 
0.00499340     0.340000     -151.928 
0.000843465      1.84391     -167.471 
0.00117159      1.90379     -176.386 
0.000896033      7.29367      174.493 
0.00203030      2.79407     -174.249 
0.00107474      2.37023     -174.674 
0.000771094      7.35935      174.072 
0.00191190      2.15870     -166.608 
0.00269468      1.30015      179.119 
0.00111715      2.00010      179.427 
0.000396356      2.30000      180.000 
0.000568984      2.92062     -178.823 
0.00225919      2.18742     -175.280 
0.000384918      2.28849     -170.949 
0.00127114      1.88383     -176.348 
0.00236498     0.100000      90.0000 
0.000197787      1.54000      180.000 
0.00249332      2.60123      178.238 
0.000194975      1.24788     -158.369 
0.00441014      2.00898     -170.256 
0.00137519      1.82888     -166.724 
0.00176862      1.25539     -157.521 
0.00219979     0.461736      162.350 
0.000374917      2.12462      176.222 
0.000869942      1.54013      179.256 
0.000480038      2.38134      178.075 
0.00136547      2.12603      175.684 
0.00225982      3.33017     -175.522 
0.000333814      7.27186      174.634 
0.00125828      2.48202     -177.691 
-0.00145465      3.35744     -171.435 
0.000471712      2.30825     -171.027 
0.000742223      7.40122      173.950 
0.00100108      2.37217     -174.193 
0.000312966      1.54052      178.512 
0.000302334     0.120000     -90.0000 
0.000850834      1.61047     -165.619 
-0.00168368      4.99103      153.846 
0.00127185      2.64764     -169.114 
0.000864015      1.56115      177.797 
0.00338287      5.01761     -167.570 
0.000830854      1.84835     -166.866 
0.000429121      7.27002      174.791 
0.000151744      1.98000      180.000 
0.000820238      2.92110     -178.431 
0.000952352      4.28789     -169.791 
0.000279383      1.96000      180.000 
0.000335612      1.68190     -177.274 
0.000402431      1.10454     -174.806 
0.000538383      1.20748     -153.435 
0.000280825      5.77235     -165.964 
0.000140545     0.750733     -138.240 
0.000274188      2.17816     -166.729 
-0.000530083      6.62239      169.912 
0.000657975     0.101980      78.6901 
0.000995416     0.128062     -51.3402 
-0.000398359      5.46059      155.782 
-0.000522811      5.96450      174.806 
0.000518262      1.56205      177.064 
0.00143456      5.79175     -166.012 
0.000264594     0.749667     -136.081 
0.000747791      4.12311     -165.964 
0.000261164     0.228035      37.8750 
0.000389856      3.20506     -172.831 
0.00214951      1.75841     -160.741 
0.000164228      3.02060      178.862 
0.000383072     0.787147     -152.784 
0.000129046      5.77723     -165.771 
0.000253804      3.54993     -172.555 
0.000127516      2.79213     -174.657 
0.000127277      2.32499     -171.591 
-0.000252249     0.600333     -150.018 
0.000125365      3.20762     -172.476 
0.000125165      3.04164      178.116 
0.00250460     0.985089      174.174 
0.00106563      1.68428     -175.914 
0.000628769      1.64985     -173.737 
0.00226435      1.85785     -165.665 
0.000802218      2.38730     -171.327 
0.000913886      1.78011      179.356 
0.000763520      2.39040     -170.853 
0.00157616      2.32362     -166.562 
0.000491412      2.39207     -174.242 
0.000861635     0.487032      160.821 
0.00207416      1.28000      180.000 
0.000758652      2.39015     -174.719 
0.00174380      1.70294     -176.634 
0.00106909     0.493964      158.629 
0.000317439      1.78045      178.713 
0.000313345      2.41015     -170.929 
0.00144115      1.44069     -166.350 
0.000815045      1.84358     -164.908 
0.000307366     0.101980     -78.6901 
0.000991497     0.965194      174.053 
0.000450515      2.58031      179.112 
0.00156894     0.200998      174.289 
0.000302103     0.141421      45.0000 
0.00175775      2.79034     -175.066 
0.000149869      1.77088     -161.565 
0.00114347      1.76045      178.698 
0.000559684      2.59422     -170.683 
0.000689500     0.107703     -68.1986 
0.00196953     0.169706      45.0000 
0.000565564     0.156205      39.8056 
0.00254125      3.16538     -172.740 
0.00199440      2.60069      178.678 
0.000522822      2.86252     -177.597 
0.00110054      2.78539     -167.560 
0.000238313     0.528015      155.376 
0.000642230      6.68048      179.314 
0.00139996     0.581378      153.435 
0.000835721     0.832586     -155.898 
0.000372310      2.32835     -166.083 
0.000703205     0.116619     -59.0362 
0.000927918      1.42127     -166.159 
0.00148794      6.66048      179.312 
0.000679280      1.16276     -176.055 
0.00174217      4.51668     -166.948 
0.000445778      2.88174     -178.011 
0.000230772      7.36133      178.910 
0.00272798      5.30094     -178.919 
0.000228934      3.00107      178.472 
-0.00823048     0.360555      19.4400 
0.000803286      2.30894     -165.964 
0.000573804      7.24003      179.842 
0.00106140      2.61725     -170.322 
0.00119249      3.12083     -164.004 
0.000891685     0.987320      173.019 
0.000207079      2.48290     -177.230 
0.000216659      3.02166      178.103 
0.000109612      2.02869     -170.352 
-0.00210916      5.57857     -158.771 
0.000896307      7.38173      178.758 
0.00104048     0.401995      174.289 
0.000274217      2.16749     -175.236 
0.00283828      7.19347     -176.493 
0.00236679     0.322490     -150.255 
0.000639726      7.08045     -179.353 
0.000546592      2.98221     -170.348 
0.000203857      1.74046      178.683 
0.000826665      2.60584     -162.121 
0.00117269      3.02238      177.725 
0.000484182      1.56461      175.601 
0.00156779      4.90979     -164.888 
0.000197160     0.843090     -157.694 
0.00142080      1.14280     -175.986 
0.000101004      1.41662     -166.945 
0.00187634      4.11830     -166.234 
0.000196002      2.42528      176.217 
0.000423786     0.814125     -152.176 
0.000386565     0.184391      40.6013 
0.000287736      1.32061      178.264 
0.000586562      2.80492     -167.648 
0.000791972      6.82847     -177.146 
0.000193377      4.42922     -165.085 
0.000371429     0.172047      35.5377 
0.00162846      4.85572      156.708 
0.00118803     0.854400     -159.444 
0.000372246      3.44006     -169.278 
0.000450711      4.53171     -167.252 
0.000746355      2.81027     -175.101 
0.000852352      5.44301     -174.729 
0.00117182      1.73954     -160.523 
0.00158950      5.64907     -176.753 
0.00105004      4.28439     -170.054 
0.00301898      4.87409      156.801 
0.000939861      4.62450     -169.030 
0.000621279      8.47738      169.671 
0.00243931      4.40009      174.523 
0.000608435      4.41511     -164.768 
0.000419408      1.74103      178.025 
0.00140425      6.12003     -179.813 
0.00159885      2.09990     -162.255 
9.10036e-05      1.56627      174.872 
9.04756e-05      5.15228     -170.391 
-0.000177945      3.55736     -148.097 
0.000912921      3.16796     -172.381 
8.97344e-05      2.44663      175.781 
0.00122807      3.55550     -162.992 
0.000496831      1.34134      177.436 
0.000737181      4.62074     -169.274 
0.000339030      5.30136     -178.703 
0.000590184     0.188680      32.0054 
0.000396243      5.13256     -170.354 
0.00145038      6.68075      179.142 
0.000253678     0.806226     -150.255 
0.000515555      3.42421     -168.887 
0.000679396      7.55272      170.089 
-0.00191956     0.608276     -152.592 
0.00119997      5.27894     -173.037 
-0.00192656      3.55106     -147.653 
0.000359229      2.42669      175.746 
0.000462694      3.55533     -171.915 
-0.00129092      4.95516      153.642 
0.00137006     0.128062     -38.6598 
0.000614937      2.64038     -169.967 
0.00117413      3.10161     -163.902 
0.00129193      4.86016     -179.528 
0.000534619     0.424264      171.870 
0.000685241      4.79521      173.053 
0.000903711      1.22540     -153.853 
0.000958596      3.32866     -175.865 
0.00149335      3.34150      178.285 
0.000913112      1.58619      174.936 
0.000162857      3.18522     -172.786 
0.00109089      2.12339      176.760 
0.00149133      5.40370     -165.861 
0.000936107     0.205913      29.0546 
7.91006e-05      3.08759     -169.928 
-0.00527223      1.09563     -158.587 
0.000416381     0.563560      152.526 
0.000228992      6.77032     -174.576 
7.85523e-05     0.782304     -147.529 
0.000354675      5.42498     -174.500 
0.000576630      4.45982      169.144 
0.000980599      8.50066      169.563 
0.000719702      1.84889     -164.310 
0.000616554      3.02324      177.346 
0.000723967      2.62069      178.688 
0.00216709      1.27812     -159.864 
0.000145815     0.536656      153.435 
7.46810e-05      6.82750     -177.314 
0.00161095      5.47416      153.997 
0.000430893      2.14756     -175.192 
0.000284371      1.34239      176.583 
0.000207848      2.59307     -161.565 
0.000830690      4.98129     -174.701 
-0.00118312      4.07141     -149.278 
0.000563046      7.24011      179.683 
-0.00119509      6.19787      167.892 
0.000709547      6.77224     -174.407 
0.00116462      3.55258     -172.235 
0.00172264     0.349857     -149.036 
0.000208664     0.788923     -149.534 
0.00169218      4.81900     -156.520 
0.000142639     0.141421     -45.0000 
0.000209768      4.21203      170.985 
0.000205529      6.80753     -177.306 
7.17350e-05      2.80863     -175.507 
0.00138169      3.24728      172.569 
0.000729729      4.22474      177.287 
0.00134937      4.34166      165.324 
0.000312400      1.72105      178.002 
0.000317154      5.21463      173.393 
-0.000396776      2.65962      167.845 
7.05630e-05      3.10728     -169.992 
7.00105e-05      7.22003      179.841 
0.00116550      4.28098     -170.318 
0.000264018      1.70423     -175.962 
-0.00206381     0.404475      8.53077 
0.000518781      5.38431     -165.809 
0.000322632      3.12775     -175.967 
0.00164795     0.545894      151.557 
0.000777266      1.32740     -173.946 
6.86743e-05      7.37501      170.793 
0.000312215      7.36174      178.755 
6.80009e-05      2.88250     -177.614 
-0.000944326      6.40013      179.642 
0.000598276      4.51221     -167.196 
0.000184780      3.09115     -169.563 
0.000485750      4.14309     -177.787 
0.00116545      6.93196      166.485 
0.000624177      7.99812      174.403 
0.000740791      4.77535      173.024 
0.000255344      6.02249     -175.047 
0.000130875      1.34373      175.732 
0.00223279      4.18918      171.212 
0.00124218      6.12000      180.000 
0.00141931     0.234094      19.9831 
-0.000501148      5.70929      159.280 
0.000189313     0.444072      172.235 
0.000682272      6.58741      171.796 
-0.00120144      5.68570     -174.550 
0.000128017     0.796492     -151.504 
0.000302251      5.44489     -174.520 
-0.00119283      8.14710      177.608 
0.000390249      1.46014     -166.535 
0.000911087      6.61465     -176.186 
8.80272e-05     0.181108      173.660 
0.000303279      1.34536      174.883 
-0.000801521      5.81378     -176.055 
6.31145e-05      4.83223      162.165 
0.00180298      3.18779     -172.429 
0.000226011      7.31552      174.352 
0.000179461     0.847585     -160.710 
-0.00188984     0.617414     -155.095 
0.000446932      1.72070     -160.301 
0.000411402      7.53302      170.063 
0.000464620      1.12285     -175.914 
0.000421293      4.16308     -177.797 
0.000517973      3.40459     -168.822 
0.000430489     0.804984     -153.435 
0.00101972      4.83839      161.940 
0.00134510      5.66579      174.531 
0.000337826      5.49753     -170.366 
0.000597485      2.96446     -150.495 
0.000198080      6.00257     -175.030 
0.000281222      3.11082     -169.629 
0.000458974      3.02424      176.967 
0.000478607      3.54232     -162.588 
-0.00116415      6.42028      179.465 
-0.00144872      2.64008      167.754 
0.00119960      4.35821     -155.317 
0.000395162      6.69104     -170.538 
0.000667719      5.12925     -170.574 
0.000330143      5.98441     -174.823 
0.000114526     0.835703     -158.962 
0.000762372      3.12640     -176.332 
0.00102322      5.78695     -166.204 
5.81200e-05     0.470744      167.735 
0.000333538      5.65024     -176.550 
0.000377305      2.58054     -161.003 
-0.00114981      5.13034      162.766 
0.000671405      7.26044      179.369 
0.000281143      2.89088      169.234 
0.000396688      4.99808     -167.521 
5.77521e-05      3.08240     -163.799 
0.000205065      6.80850     -177.138 
0.00109856      1.32544      174.806 
-0.000335430      7.23903     -167.231 
0.000928904      5.66904     -176.764 
0.000162458     0.466905      170.134 
0.000162509      5.96634     -174.614 
0.000632676      5.46293     -174.749 
0.00101595      4.58855     -176.502 
0.000538029      6.75432     -174.222 
0.000677518      6.78024     -171.177 
-0.000638652      3.63186      172.405 
0.000237997      3.92703      173.273 
0.000108170     0.904434     -161.966 
0.000644377      3.49794     -154.607 
0.000106041      4.99448      175.636 
0.000102792      1.61505     -172.171 
0.000934446     0.128062      51.3402 
0.000106417      3.03058     -163.120 
0.000104521      4.20894      171.254 
0.000251300      4.85971     -172.670 
0.000155494      7.38219      178.603 
0.000200059      5.23450      173.418 
0.000204322      3.43837     -150.751 
0.00126038      2.88721      169.624 
0.000104845      3.56140     -162.684 
0.000105001      1.68297     -176.594 
0.000606268      5.95869     -169.558 
0.000104752      6.82469      175.125 
-0.00143736      6.60624      169.711 
0.000623522      4.74067     -152.894 
9.28546e-05      7.35527      170.768 
-0.000203625      6.22206     -178.526 
0.000243041      3.66922     -175.937 
0.000249191      1.70106      177.979 
0.000453824      4.86230     -172.437 
-0.000707799      8.12630      177.743 
0.000327970      6.67131     -170.509 
-0.000251425      4.42054     -169.046 
-0.000451305      3.27054     -160.346 
0.000243459     0.923472     -162.350 
0.000445755      3.01144     -163.009 
-0.00203591      3.37153     -172.158 
-9.93622e-05      5.80003      179.802 
0.000433489     0.814371     -155.323 
0.000322428      3.22025     -179.288 
0.000646515      3.02576     -155.807 
0.000820984      3.42041     -169.216 
0.000514257      5.51395     -170.606 
0.000371170     0.490306      168.232 
-0.000730778      5.79524     -175.844 
0.000693958      2.62122      178.251 
0.000277568      4.58628     -160.380 
0.000834576      4.26469     -170.008 
0.000563002      5.94643     -174.596 
0.000322728      6.93746     -174.043 
0.000300708     0.212603      41.1859 
-0.000577627      6.20206     -178.522 
0.000244250      6.82642      174.958 
-0.000530886      4.43644     -169.349 
9.45164e-05      7.40270      178.452 
0.00111390      6.96735      177.368 
0.000300886      1.60611      174.999 
8.90765e-05      5.01442      175.654 
4.73006e-05     0.737564     -139.399 
0.000937983      1.70188     -160.074 
-0.00102409      2.51531      170.388 
-0.000583188      4.75197      159.811 
0.000269314     0.252982      18.4349 
0.000492799      5.40862     -165.655 
-4.64196e-05      5.82014      179.606 
0.000836972      2.94707     -150.303 
0.000360592      3.42094     -150.588 
4.62680e-05      7.97629      174.532 
0.000462825      4.60487     -168.983 
0.000288329     0.169706     -45.0000 
0.000640346      2.82446     -167.735 
0.000126072      8.48099      169.538 
0.00125814      2.86754      169.552 
9.00087e-05      6.81704     -172.583 
0.000164476      7.17476     -176.324 
0.000246289      1.46492     -165.774 
0.000921406      6.58173     -168.963 
0.000246332      5.26156     -172.794 
-0.000201266      6.18207      173.312 
0.000849898     0.266833      12.9946 
0.000165918      3.20056     -178.926 
8.62429e-05      1.60449      175.711 
0.000280670      7.99620      174.546 
0.000121166      4.99300      175.865 
-0.000205058      5.84014      179.608 
7.23735e-05     0.605310      172.405 
-0.000529590      4.43279     -169.603 
0.000283403      3.64927     -175.914 
0.000144358      4.16389     -177.522 
0.000457186     0.936803     -163.887 
0.000281572      6.61335     -176.359 
0.000165178      7.42326      178.302 
0.00117327      1.30752     -173.853 
0.000125172      8.20441      167.183 
0.000163497      6.81448     -172.750 
0.000120723      6.78852     -177.129 
0.000754334      6.80000     -171.203 
-0.000278126      2.49231      170.764 
4.29002e-05      4.96137     -174.680 
0.000367819      3.14515     -176.719 
-0.000158757      5.10721      153.234 
0.000261749      4.14391     -177.510 
0.000122785      4.89048     -164.827 
0.000307969      2.77042     -175.030 
-0.000159103      4.06453     -148.891 
0.000276038      4.27776     -151.518 
0.000117852     0.735935     -137.203 
-0.000103757      6.26080     -179.085 
0.000160954      6.18191      175.175 
0.000287994      6.91968     -173.861 
-4.18405e-05      5.68352      159.397 
0.000830058      6.31652      169.971 
0.000328367      4.60513     -160.463 
0.000236066      5.28136     -178.698 
-0.000781437      7.22999      176.987 
0.000194156      7.24025      179.525 
0.000273313      2.12941     -174.611 
-7.95987e-05      5.82168     -163.433 
0.000195858      6.68108      178.971 
0.000232352      5.37018      169.485 
8.02509e-05      2.10238      177.274 
0.000192682      7.51681      169.886 
-0.000308493      8.07802      172.030 
0.000365094      4.97948     -174.931 
0.000191094      3.92922     -170.921 
7.73464e-05      2.42825      175.276 
0.000613589      8.36481      170.921 
7.70059e-05      4.16173      178.348 
0.000612956      6.32316      178.187 
-7.80645e-05      5.40170      160.760 
0.000152572      2.11301     -162.937 
-0.000451736      4.12335     -153.186 
-0.000792788     0.655134     -167.661 
-0.000151372      5.94458      174.788 
7.54666e-05      6.65159     -170.481 
-0.000152023      6.40028      179.463 
9.34063e-05      1.97312     -169.487 
0.000112741      2.76007     -179.585 
7.59783e-05      5.07488      155.556 
7.52728e-05     0.164924      165.964 
7.47898e-05      4.20386      177.546 
-0.000351829      6.28051     -179.270 
0.000279250      4.85741      162.013 
-0.000524891      3.78566     -164.055 
7.51982e-05      2.99232     -162.897 
-7.49876e-05      6.00213      178.472 
0.000482005      3.26711      172.614 
9.87192e-05      4.90461     -165.114 
0.000110875      8.20887      167.047 
3.76877e-05      5.87946     -173.358 
7.45691e-05      5.09325      165.909 
-7.43486e-05      4.64625     -155.862 
0.000287501      4.75550      172.995 
0.000104402     0.421900      174.560 
3.74883e-05      2.91548     -157.834 
3.74795e-05      4.40114     -164.448 
3.71813e-05      4.52734     -167.499 
-3.71805e-05      5.38282      160.690 
0.000143587      6.20355      175.006 
0.000106749      4.97855     -167.471 
3.68731e-05      6.75636     -174.053 
3.68327e-05      7.44387      178.152 
3.67647e-05      5.68764      174.350 
3.67200e-05      5.76281      178.210 
3.66888e-05      4.12989     -158.405 
3.66709e-05      1.62444      175.764 
-0.000521778      4.54251     -172.155 
0.000305535      3.32096      178.620 
3.64937e-05      1.25936     -159.550 
3.63857e-05      2.52127     -178.182 
-0.00129094      8.76002      169.742 
-0.00132770      7.86163      150.761 
-0.000511070      3.85689      170.147 
0.000384728      7.88071     -174.174 
-0.00108042      6.05957     -160.728 
0.000996408      7.86287     -174.014 
-0.00160858      7.46029      154.259 
-0.000103180      3.86036      169.854 
-0.000973183      5.68595     -161.119 
-0.00116817      7.45335     -164.435 
-4.99867e-05      3.90692      169.380 
-0.000602669      7.21343      155.425 
-0.000346252      3.93029      169.148 
0.000326592      7.27596      149.982 
0.000142594      9.19274      158.962 
0.000143030      7.29879      152.943 
-0.000437909      7.47393     -169.983 
-0.000261554      7.63626      151.018 
0.00124204      7.32956     -165.622 
0.000915620      7.32571      152.875 
-0.00107129      3.83719      170.096 
0.000176124      8.51699      163.352 
0.000700264      9.16690      159.034 
-0.000180106      7.04911      158.531 
-0.000253933      7.97599     -164.883 
-0.000406948      8.79291      156.117 
-0.000246115      7.04182      158.682 
-4.37054e-05      5.73554     -155.043 
0.000710051      9.40734      158.289 
-0.00119826      3.50708      165.805 
-0.000201498      7.47743     -169.832 
-0.000786259      5.72591     -154.778 
0.00104565      5.83880     -160.386 
0.000222132      6.52015      165.069 
0.000799586      8.54190      163.262 
-0.000371868      6.41327      153.914 
-0.000263350      7.20514      155.569 
0.000413102      8.07765      154.323 
0.000699315      5.85098     -160.636 
0.000220768      6.50083      165.023 
-0.000218767      6.30254     -158.401 
0.000145959      7.58451      158.984 
-0.00105567      6.04735     -160.486 
0.000114831      5.09784     -160.996 
-0.000642729      8.98134      154.405 
-0.000217647      7.61877      150.945 
-0.000245781      8.82922      161.237 
-0.000290375      7.94796     -164.530 
-0.000311038      8.75050      158.831 
0.000216538      8.08633      154.195 
0.000149826     0.116619      59.0362 
0.000764645      5.39637     -158.475 
-0.000396897      2.85748      164.991 
-0.000766085      7.88076      162.117 
0.000144157      1.42127      177.580 
0.000109209      1.63487     -172.266 
0.000306309      3.94690      173.307 
-3.73120e-05      6.75805      159.742 
0.000241524      6.63331     -176.370 
-0.000329783      3.93411      168.861 
0.000268978      7.43806      162.150 
-0.000174822      4.62800     -155.761 
0.000596146      7.95057      168.831 
0.000202328      3.04381      168.247 
-0.000258198      8.74990      164.217 
-0.00101612      5.67355     -160.862 
3.65217e-05     0.509902      168.690 
-0.000859770      7.45775     -169.805 
-0.000103576      8.87921      163.647 
0.000275313      5.07894     -160.923 
0.000548473      5.50273     -160.907 
0.000672673      1.39169      172.569 
0.000406313      7.83433     -166.567 
-0.000226413      7.80574     -168.172 
-0.000497897      9.26084      162.661 
0.000386420      1.70188      177.306 
-0.000101738      8.80102      155.998 
-0.000517033      5.31293     -153.628 
0.000473104      2.92657     -158.344 
3.53128e-05      6.74961     -176.943 
0.000359825      5.46542      154.185 
6.87532e-05      3.00060      178.854 
-0.000186399      6.75115      159.901 
-6.67596e-05      7.34654     -168.537 
0.000328142      6.18915     -159.574 
3.45392e-05      2.76875     -175.443 
0.000133096      6.60521     -168.826 
0.000186915      2.09390     -162.777 
-0.000239417      4.63810     -156.088 
-0.000804083      9.00642      157.821 
0.000156436      5.36492     -165.757 
0.000212240      7.58609      152.354 
0.000121804      6.82293      178.320 
-0.000379362      8.76361      169.613 
6.73379e-05      7.77979     -169.932 
0.000535331     0.197990     -45.0000 
0.000362114      3.07415     -160.622 
0.000235600      4.98293     -167.247 
6.29776e-05      3.13050     -169.695 
6.44340e-05      6.76958     -176.952 
0.000463769      2.98650     -163.264 
0.000125851      3.32151      178.275 
-0.000209762      7.92868     -164.491 
-0.000637616      7.98479      155.746 
9.61260e-05      4.63625     -160.862 
0.000153534      6.02080     -175.236 
0.000356699      7.28099      179.056 
0.000454258      3.94588     -171.254 
-0.000535602      4.66930     -157.059 
0.000192122      1.40129      177.546 
0.000477041      7.56584      158.930 
9.47386e-05      3.01761     -156.153 
0.000428578      7.31661      153.015 
0.000272240     0.721388     -136.123 
-0.000328019     0.599333     -154.290 
0.000651386      4.29535     -151.645 
0.000514727      7.91459     -171.133 
-0.000118032      6.89098      156.932 
0.000617553      4.14849     -158.506 
0.000122744     0.514198      166.504 
0.000232790      7.79602     -170.103 
0.000620650      8.34060      156.693 
0.000567797      4.73160     -153.110 
-3.16444e-05      3.79947     -164.427 
-0.000305336      7.44801     -164.583 
0.000702286      6.33972      169.824 
6.16547e-05      5.88180     -173.165 
0.000191273      1.38130      177.510 
3.12438e-05      7.93095      168.803 
0.000373935      3.86254     -149.850 
-0.000321196      8.06102      171.870 
3.10443e-05     0.817068     -158.459 
0.000163955      3.00027      179.236 
0.000120091      8.36167      171.056 
0.000378892      2.62640      163.635 
-0.000279600      5.13264      158.033 
0.000374767      2.10723     -163.457 
0.000239752      7.35677     -171.716 
-0.000624832     0.954149     -146.976 
0.000159478      4.18306      177.808 
8.95156e-05      1.36132      177.474 
0.000273442      4.62398     -160.546 
-5.82790e-05      4.98197      153.538 
-0.000253636      8.87360      163.771 
0.000903937      6.20097     -159.812 
-0.000321787      7.87909      150.832 
0.000395604      3.64790     -176.228 
3.02525e-05     0.806226     -156.615 
0.000279340      2.10950     -174.560 
-0.000143931      4.59778     -154.215 
0.000405843      3.42864     -151.043 
-0.000196104      6.39531      153.836 
0.000143825     0.981835      176.496 
-0.000566124      7.56066      179.242 
0.000142219      5.36004     -165.964 
0.000368473      3.03980      168.616 
0.000198203      2.60192      177.797 
0.000303217      7.45710      162.197 
-0.000268913      5.32962     -176.558 
0.000316447     0.798499     -157.932 
0.000176118      5.47814      158.587 
0.000307655      4.89951     -165.340 
0.000226260      5.89932     -173.381 
-0.000190383      5.73446     -168.533 
0.000183354      7.29562      174.336 
0.000328075      6.74166      163.985 
-0.000191857      8.96330      154.350 
-5.41772e-05      4.75891      159.585 
-0.000560403      3.53633     -142.352 
0.000458447     0.722496     -138.366 
0.000129728      6.65204     -176.553 
-0.000250482      8.87353      172.619 
2.88817e-05      5.79120     -159.374 
0.000178959      7.08025     -179.514 
0.000203830      6.03911     -175.441 
-0.000324565      7.68937      157.036 
-0.000325234      6.20429      173.150 
0.000307287      8.34192      171.035 
0.000269926      7.97967     -175.976 
0.000269471      4.33663      165.579 
2.81943e-05      6.82821      174.790 
2.80734e-05      7.15480     -176.314 
0.000360916     0.113137      45.0000 
-0.000105347      7.97080     -165.022 
-0.000576442      1.43388     -157.011 
0.000291806      3.37260     -146.121 
0.000325192      3.53842     -171.549 
0.000246402      8.05963      154.262 
0.000364086     0.121655     -9.46232 
0.000159015     0.590593      151.699 
0.000128240      5.49622     -161.104 
2.74523e-05      7.89795     -170.967 
0.000270904      6.33103     -161.966 
0.000125008      5.40892     -168.482 
0.000286643      6.01126      167.120 
-0.000493176      5.07551      168.867 
-0.000123494      3.08039     -148.271 
-0.000267235     0.609262     -156.801 
-0.000120263      8.74329      158.953 
0.000402974      2.81460      162.209 
0.000287819      4.56859     -176.486 
0.000501325      3.19049     -172.073 
-5.24014e-05      3.54497     -147.207 
4.72023e-05      5.41295     -168.275 
0.000151783      4.95956     -174.910 
0.000241493      7.98484      159.931 
0.000281928     0.983260      175.333 
0.000141886      4.37922     -163.551 
-0.000168050      6.75115     -159.901 
-2.65730e-05      8.19366      152.684 
5.23498e-05     0.519230      164.358 
0.000394330      9.11377      155.910 
5.14025e-05      5.77958     -159.119 
-0.000373491      4.58855     -153.882 
0.000168934      4.88201      156.586 
0.000352504      2.62191      177.814 
5.08766e-05      6.79823      173.920 
0.000209577      1.70000      171.203 
0.000186152      7.28972      153.083 
5.05495e-05      6.81061     -176.802 
4.95392e-05      4.84017     -179.526 
0.000142902      1.92167     -177.614 
5.06700e-05      9.10562      156.025 
7.09254e-05      6.35648     -173.859 
-0.000184883      6.27688     -175.797 
-0.000185267      6.76677      165.799 
0.000213140      7.26069      179.211 
0.000280661      1.27138     -160.710 
-0.000242215      7.66676     -175.212 
0.000116086      4.39281     -163.875 
-9.70149e-05      5.13630      162.553 
-0.000346122      6.03523     -160.244 
0.000121225      6.59630      172.509 
-0.000297636      3.66590     -158.895 
-0.000164948      6.70146     -178.803 
0.000183981      5.34064     -165.912 
2.56047e-05      5.07385      165.854 
5.00601e-05      6.80294      178.315 
5.01013e-05      1.62604      175.061 
0.000159661      8.38210      166.196 
-0.000341567      4.65283      169.849 
-0.000206780      5.71640     -154.511 
-9.20705e-05      5.52941      151.952 
9.30308e-05      7.28599      149.845 
2.50755e-05      7.15354     -176.474 
7.24163e-05      5.14898     -170.611 
0.000205045      4.46377     -174.085 
-2.48331e-05      5.73446     -154.597 
0.000159439      5.38516     -164.932 
-7.33377e-05      5.14377      158.323 
2.47620e-05      7.88277     -174.029 
2.46820e-05      3.06340      168.323 
0.000156164      5.07878      165.635 
-0.000356891      1.99008      174.232 
0.000136589     0.226274     -45.0000 
-0.000333985      1.11319     -162.216 
-0.000271602      3.36886     -172.495 
-0.000246738      7.21002      176.979 
0.000201442      6.57793     -169.134 
2.42608e-05      2.75049     -174.994 
0.000267949      1.69517     -160.710 
0.000177153      4.97775     -175.160 
0.000111335      3.26460      172.962 
9.26216e-05      6.78239      178.479 
-0.000134057      4.61736      160.780 
6.74126e-05      7.13484     -176.303 
0.000176889      5.76808     -158.863 
0.000134975      9.43332      158.221 
0.000176873      3.16512     -176.740 
-0.000198203      5.71888     -168.297 
8.85428e-05      5.49214      154.088 
-4.60631e-05      5.99496     -159.086 
0.000154576      5.49422     -170.572 
8.81653e-05      4.77904      167.185 
6.71472e-05      6.22347      175.022 
-0.000198006      5.15504      158.611 
-0.000130963      5.62512     -159.825 
0.000174461      5.35421      169.236 
2.34489e-05      1.70188     -177.306 
4.40346e-05      1.48432     -165.964 
6.68487e-05     0.950789     -165.379 
2.31875e-05      4.70106      178.781 
0.000153073      6.21974     -172.052 
6.59648e-05      8.51469      160.373 
-4.49250e-05      7.96565     -165.161 
2.30872e-05      1.95346     -169.380 
0.000128632      5.85764     -160.451 
-2.29768e-05      6.02269      178.287 
8.82684e-05      6.83058     -176.811 
-0.000109269      7.89656      150.903 
-0.000150644      6.21743      167.931 
8.76311e-05      6.62625     -166.383 
0.000151216      5.10564     -177.306 
-0.000173337      7.69896      165.097 
2.26964e-05     0.816088     -162.897 
6.55696e-05      5.14576     -170.831 
2.26818e-05      6.67083     -176.734 
6.46342e-05      7.82971     -166.709 
-6.54365e-05      3.56275      177.748 
8.61684e-05      6.53437      165.283 
0.000171891      1.28763     -173.758 
0.000129106      4.68107      178.776 
6.38774e-05      6.35006     -162.022 
-0.000106984      9.01399      157.703 
2.24040e-05      9.14107      159.106 
0.000128321      8.33883      171.170 
-0.000106394      6.04268      178.293 
-0.000170662      7.64683     -175.199 
4.31753e-05      2.74882     -175.409 
-0.000107476      3.56359      177.427 
4.34974e-05      7.28135      178.898 
6.48240e-05      2.80029     -179.182 
4.26840e-05     0.286356      12.0948 
6.37145e-05      6.59372      172.681 
-6.40633e-05      9.27994      162.698 
4.26036e-05      2.16342     -166.092 
6.38499e-05      3.09302     -160.745 
0.000106355      6.76240      178.475 
8.50580e-05      8.32224      156.639 
4.33594e-05     0.120000      0.00000 
-6.39664e-05      4.97630      173.075 
4.22637e-05      7.06025     -179.513 
6.33457e-05      6.19035     -165.021 
2.15302e-05      6.79615      174.088 
6.34653e-05      4.86366      156.492 
6.26635e-05      4.30070     -170.362 
2.15026e-05      5.07244     -161.136 
2.14487e-05      7.32612      171.206 
4.21992e-05      6.93957     -173.879 
-6.36912e-05      5.75569      162.195 
2.14442e-05      4.86498     -172.203 
6.29633e-05     0.803243     -161.114 
2.13074e-05      2.84113     -178.386 
4.21686e-05      3.98502     -158.199 
4.18758e-05      6.70322     -173.490 
6.24716e-05      4.43125     -159.111 
-4.18005e-05      8.98283      175.914 
6.23555e-05      4.70472      153.217 
2.10739e-05      1.68107     -177.955 
-6.24779e-05      7.07819      146.759 
4.14065e-05      3.87262     -149.594 
-2.10067e-05      8.80918      155.879 
-2.09826e-05      5.99953     -159.511 
4.15008e-05      6.74721      163.821 
4.13808e-05      7.99172      159.796 
4.14515e-05      7.30756      153.154 
4.13327e-05      5.44033      179.368 
4.13115e-05      6.81175     -176.634 
-2.07450e-05      6.94279     -169.208 
-2.06916e-05      3.58274      177.761 
2.06628e-05      7.57683      152.488 
-4.09947e-05      5.76184      162.005 
2.05913e-05      3.89076     -160.168 
-2.06094e-05      7.82532     -168.202 
2.05624e-05      3.94289     -171.541 
-2.04811e-05      7.24812      161.165 
2.04526e-05      2.35440     -173.660 
-2.05156e-05      3.06340     -148.074 
-2.03903e-05      7.90595      162.023 
-2.03897e-05      8.74393      169.590 
2.04228e-05      2.62275      177.378 
2.03607e-05      7.32462     -165.774 
2.03521e-05      4.56741     -176.737 
