! Center RA: 17 51 32.81857,  Dec: +09 39 00.72829 (2000.0)
! Tentative model.
! Flux (Jy) Radius (mas)  Theta (deg)  Major FWHM (mas)  Axial ratio   Phi (deg) T \
! Freq (Hz)     SpecIndex
-0.0328119    0.0800000      180.000 
0.00217910     0.178885      26.5651 
 0.0130566     0.144222      33.6901 
-0.00431659      1.17712      9.78241 
-0.000523186      1.18457      11.6894 
-0.00387185    0.0400000     -90.0000 
-0.0140888    0.0400000      180.000 
-0.000855872      1.14543      12.0948 
-0.000277083     0.923472      4.96974 
-0.00185852     0.888144      7.76517 
-0.000118067      1.25028      7.35238 
-0.00100220      1.28561      5.35582 
-0.000105515      1.12071     -2.04541 
0.00476248     0.113137      45.0000 
-0.000535188      1.16069     -1.97493 
-0.000426286      1.36235      3.36646 
-0.00503809     0.268328      153.435 
-0.000873873      1.53310     -7.49586 
-0.000342666      1.21062      7.59464 
-0.000713013      1.32242      3.46823 
-7.16823e-05      1.23223      13.1340 
-0.000190484      1.16276     -3.94519 
-0.000193762      1.00000      16.2602 
-0.000317438      1.27122      12.7244 
-0.000130731     0.927793      7.43141 
-0.000542338      1.57277     -7.30576 
-0.000628220     0.855102      10.7843 
-0.00123333     0.764199     -6.00901 
0.00241134     0.120000     -90.0000 
-0.000370946      1.31027      12.3391 
0.00246568    0.0894427      63.4349 
-0.000261712      0.00000      0.00000 
0.00131072     0.243310     -170.538 
-0.000688669      1.32061      1.73570 
-0.000105693     0.961665      16.9275 
-5.33687e-05      1.20266     -3.81407 
-0.000220512      1.17098      7.85331 
-0.00139323      1.60798     -5.71059 
-0.000288911     0.950789      14.6209 
-0.000376990      1.12641     -6.11550 
0.000597249     0.488262      34.9920 
-0.000181223      1.31939      14.0362 
-0.000201194      1.34937      11.9761 
-0.000111353      1.35823      13.6270 
0.000500205     0.368782     -12.5288 
-0.000985589     0.407922      11.3099 
-0.000101813      1.16619      5.90614 
0.00194632    0.0800000      90.0000 
0.000962961      2.83323      13.0552 
-0.000433498      1.00000     -16.2602 
-6.15861e-05     0.912140      15.2551 
-0.000421095      1.38852      11.6336 
0.000161463      2.69072      11.1429 
-0.000270738      1.13137      8.13010 
-6.46196e-05      1.09179     -8.42697 
0.000612954     0.407922     -11.3099 
0.00183846     0.126491     -71.5651 
0.00139466     0.240000      180.000 
-0.000342713      1.71814     -12.0948 
0.000441792      2.65149      11.3099 
0.000276932      2.20291      29.3578 
0.000108452     0.521536      32.4712 
-0.000237584      1.03769     -27.5528 
0.000928311     0.417612     -16.6992 
-0.00127411     0.441814      5.19443 
0.000292980      2.55625      20.1363 
-0.000150985      1.61790      8.53077 
0.000307863      1.92416      20.6955 
-0.000467508      1.09179      8.42697 
-0.000111394     0.923472      17.6501 
0.000631646     0.544059      36.0274 
-9.18107e-05      1.42773      11.3099 
-0.000209485      1.18186      23.9625 
-2.41931e-05      1.12641      6.11550 
-0.000128776     0.848528      8.13010 
-0.000118716      1.28062      1.78991 
-0.000355433      1.44222      19.4400 
-0.000164091      1.10923     -25.6410 
-0.000379581      1.57835      8.74616 
0.00145726    0.0894427      116.565 
0.000489387     0.501199     -28.6105 
0.000155073      1.77133      25.4077 
-0.000312900     0.961665     -16.9275 
-0.000147847      1.14543      24.7751 
-0.000195904      1.61245     -7.12502 
0.000290680      2.16813      29.8760 
-5.97946e-05     0.721110     -3.17983 
-0.000323222      1.67905     -12.3808 
0.000119695      1.98595      18.7999 
0.000488159      1.44222     -19.4400 
0.000128567      2.69904      6.80905 
-0.000341444      2.23607      10.3048 
5.52704e-05      2.18358      28.4429 
7.26518e-05      2.16481      16.0908 
0.000286070      1.94813      19.1790 
-0.000274712    0.0565685     -135.000 
-8.59991e-05     0.808950      8.53077 
0.000215018      2.34094      16.8868 
0.000446160     0.243310      170.538 
-0.000148552      1.79644      11.5601 
0.000214292      2.37655      6.76617 
-4.94631e-05      1.28000      0.00000 
4.95637e-05      1.87446      39.8056 
-8.04794e-05      1.50944      32.0054 
7.88063e-05      1.70552      39.2894 
3.17031e-05      2.65481      6.05419 
1.61011e-05     0.379473     -18.4349 
-3.15342e-05      1.38159      22.1094 
-1.55551e-05     0.769415      8.97263 
-1.54535e-05      1.64924      22.8337 
1.54328e-05     0.555698      30.2564 
-1.54534e-05     0.898888     -20.8545 
