! Center RA: 16 53 52.21670,  Dec: +39 45 36.60890 (2000.0)
! Established model.
! Flux (Jy) Radius (mas)  Theta (deg)  Major FWHM (mas)  Axial ratio   Phi (deg) T \
! Freq (Hz)     SpecIndex
  0.141303      0.00000      0.00000 
 0.0129542    0.0200000     -90.0000 
0.00448751    0.0282843     -45.0000 
0.00531339    0.0447214      63.4349 
0.00510276    0.0400000     -90.0000 
0.00491608    0.0632456      71.5651 
0.00918792    0.0632456     -71.5651 
 0.0166599    0.0894427      63.4349 
 0.0338203    0.0824621     -75.9638 
0.00981243     0.107703      68.1986 
0.00589043     0.101980      78.6901 
0.00486239     0.126491      71.5651 
0.00244669    0.0848528      135.000 
0.00239915     0.189737      71.5651 
0.00218583     0.100000      143.130 
0.00591726     0.215407      68.1986 
0.00201200     0.116619      149.036 
 0.0107397     0.107703     -68.1986 
0.00188720     0.116619      59.0362 
0.00187554     0.134164      153.435 
0.00169848     0.134164      26.5651 
0.00313355     0.234094      70.0169 
0.00186195     0.152315      156.801 
0.00428358     0.164924      14.0362 
0.00314009     0.170880      159.444 
0.00484682     0.260000      67.3801 
0.00252168     0.313050      153.435 
0.00121433     0.181108      6.34019 
0.00115761     0.340000      151.928 
0.00464556     0.400500      92.8624 
0.00112325     0.184391      12.5288 
0.00136632     0.189737      161.565 
0.00168233     0.145602      74.0546 
0.00543457     0.126491     -71.5651 
0.00203750     0.367151      150.642 
0.00285507     0.200000      0.00000 
0.000961842     0.401995      95.7106 
0.000927451     0.377359      147.995 
0.00159210     0.164924      75.9638 
0.00145074     0.223607      169.695 
0.000861609     0.412311      140.906 
0.000844829     0.268328      63.4349 
0.00159676     0.360555      160.560 
0.00211800     0.134164     -63.4349 
0.00228340     0.220000      0.00000 
0.000796462     0.425206      138.814 
0.000740429     0.277849      59.7436 
0.000739069     0.438634      136.848 
0.000724815     0.220907      174.806 
0.00135945     0.580000      133.603 
0.000686754     0.404969      147.095 
0.00130989     0.400000      90.0000 
0.000659659     0.220000     -180.000 
0.00125294     0.223607     -10.3048 
0.00123690     0.573062      150.751 
0.000642302     0.288444      56.3099 
0.000619599     0.379473      161.565 
0.00116906     0.594643      132.274 
0.00112093     0.240000     -180.000 
0.000580236     0.400500      87.1376 
0.000560384     0.208806      16.6992 
0.000557525     0.384187      141.340 
0.000546154     0.300000      53.1301 
0.000535174     0.608276      152.592 
0.000531345     0.420476      92.7263 
0.00142588     0.228035     -15.2551 
0.000520463     0.858836      152.241 
0.000516847     0.609590      131.009 
0.000507979     0.161245      82.8750 
0.000502498     0.398497      162.474 
0.000946571     0.401995      84.2894 
0.000914010     0.867640      154.026 
0.000489007     0.410366      136.975 
0.000488694     0.223607      10.3048 
0.000480053     0.581378      116.565 
0.00129249     0.260768     -175.601 
0.000898701     0.312410      39.8056 
0.000878747     0.608276      133.668 
0.000460766     0.876584      152.850 
0.000795466     0.937443      146.310 
0.000777038     0.372022      143.746 
0.00110284     0.392938      165.256 
0.00191323      1.12801      142.927 
0.00116768     0.590931      113.962 
0.000419742     0.228035      15.2551 
0.00358787     0.141421     -81.8699 
0.00198063     0.404475      81.4692 
0.000403702     0.926499      147.339 
0.000401664     0.599333      154.290 
0.00150229     0.234094     -19.9831 
0.000394333      1.10018      152.969 
0.000389112     0.181108      83.6598 
0.000381848     0.438634      133.152 
0.000715578     0.328024      37.5686 
0.000371766     0.877268      155.772 
0.000368610     0.612209      128.367 
0.000984720     0.243310      9.46232 
0.000699112      1.11803      153.435 
0.00124151     0.263059     -171.254 
0.000610203     0.612209      141.633 
0.000629322     0.627694      157.521 
0.000592361     0.624820      129.806 
0.000317727     0.895545      156.297 
0.000892730     0.160000      90.0000 
0.000597836      1.14403      143.531 
0.000420026      1.12712      152.526 
0.000304930     0.596657      140.440 
0.000303519      1.17796      130.179 
0.000301192     0.247386     -14.0362 
0.000297809     0.332866      32.7352 
0.000296680     0.583095      112.166 
0.000417470     0.920869      145.620 
0.000288967      1.14018      142.125 
0.000811164      1.19331      129.560 
0.000677673      1.13596      153.886 
0.000277892     0.887694      157.479 
0.000275708     0.360555      146.310 
0.000736646     0.344093      35.5377 
0.00141793     0.252982     -18.4349 
0.000266296      1.13455      139.289 
0.000886511     0.601664      111.448 
0.000480387     0.906201      157.964 
0.000484348     0.263059      8.74616 
0.000662573     0.373631      164.476 
0.000325216      1.14856      144.926 
0.000475482     0.266833     -167.005 
0.000448594     0.646220      158.199 
0.00126402     0.909725      146.659 
0.000670311      1.18068      128.811 
0.00173097     0.407922      78.6901 
0.000237225      1.14543      155.225 
0.000419177     0.440454      129.472 
0.000234375      1.42899      136.701 
0.000447191      1.13278      137.862 
0.000446370      1.36953      151.189 
0.000423720     0.628013      127.235 
0.000213380     0.616117      144.246 
0.000212611     0.260000     -157.380 
0.000589294      1.44361      137.246 
0.000403932      1.41549      156.695 
0.000563593     0.917606      159.590 
0.000701021     0.349857      30.9638 
0.000202465      1.36821      142.125 
0.000200671      1.16362      155.638 
0.000382684     0.796492      118.496 
0.000377097     0.282843      8.13010 
0.000394790     0.272029     -162.897 
0.000194611      1.16825      128.047 
0.000192085     0.161245      97.1250 
0.000191007      1.11803      137.175 
0.000772349      1.40656      150.154 
0.000184853     0.269072     -131.987 
0.000494223      1.18406      127.451 
0.000638062      1.43388      157.011 
0.000701441     0.344093      144.462 
0.000781685     0.657875      160.463 
0.000529888     0.948683      124.695 
0.000173245      1.15551      156.541 
0.000301717     0.286356     -167.905 
0.000911314     0.268328     -116.565 
0.000169258      1.11732      135.725 
0.000167480      1.44278      136.123 
0.000167275     0.368782      167.471 
0.000572011     0.432666      123.690 
0.000288661      1.38405      142.633 
0.000162588     0.272029     -17.1027 
0.000161929     0.392938      75.2564 
0.000544520     0.787147      117.216 
0.000158795      1.49305      129.019 
0.000265174     0.208806      163.301 
0.000322244     0.302655      7.59464 
0.000300718      1.18929      160.346 
0.000594333     0.632456      124.695 
0.000731198      1.45836      137.779 
0.000629361      1.10309      135.000 
0.000971774      2.45284      144.625 
0.000764941     0.393954     -23.9625 
0.000276993     0.841190      151.607 
0.000639103      1.52118      129.130 
0.000144555     0.180000      90.0000 
0.000399667      2.87200      143.210 
0.000391956      1.17201      126.674 
0.000142683     0.300666      3.81407 
0.000259871     0.594643      109.654 
0.000140400     0.282843     -171.870 
0.000422617     0.349857      59.0362 
0.000138958      2.72470      139.764 
0.000600886      3.45259      144.192 
0.000511711      1.10345      136.469 
0.000287933      2.72947      151.557 
0.000253072      1.45231      157.319 
0.000200530      1.45726      136.668 
0.000129342      1.18271      161.259 
0.000126477     0.360555      33.6901 
0.000359006      2.72000      151.928 
0.000347241      2.73766      139.444 
0.000590635      1.71172      136.420 
0.000245633     0.291204     -164.055 
0.000360150      1.41873      130.426 
0.000872913      2.10874      144.652 
0.000120393     0.936376      160.017 
0.000318035     0.322490      7.12502 
0.000754348      2.17495      155.556 
0.000798012      1.60112      154.075 
0.000116981     0.388330      168.111 
0.000899347      3.65667      149.789 
0.000797527      2.88804      143.448 
0.000221851      2.24864      135.360 
0.000219126      1.20167      161.565 
0.000114482      3.45584      150.913 
0.000113634      2.72250      139.170 
0.000112403     0.282843     -135.000 
0.000111396      1.44471      158.051 
0.000218004      1.75932      130.389 
0.000800480      1.18811      126.098 
0.000636157      2.97200      137.182 
0.000153224      1.93546      156.879 
0.000109261     0.621289      146.821 
0.000210410      2.60215      135.000 
0.000247142     0.676757      161.030 
0.000722587      2.73766      152.124 
0.000105485     0.278568     -158.962 
0.000520608      3.44616      151.204 
0.000194126      1.47323      138.302 
0.000310647     0.588218      107.819 
0.000361025     0.367151      29.3578 
0.000101796      1.47078      157.620 
0.000351218      1.13649      151.631 
0.000100529      1.92769      157.426 
0.000848066      1.74642      129.890 
0.000602510     0.689638      163.142 
0.000347097      3.29757      137.212 
0.000295250     0.340588      3.36646 
0.000180948      1.41662      149.452 
0.000731498      2.23446      135.000 
0.000428214      2.73562      138.853 
0.000799917     0.402492     -26.5651 
0.000522332     0.778203      115.907 
0.000156424     0.280713     -175.914 
0.000439540      3.46433      143.924 
9.45012e-05      2.64756      153.048 
0.000174894      1.12641      163.496 
9.40395e-05     0.640312      128.660 
0.000396370      1.46328      158.344 
0.000336955      2.58805      134.687 
0.000384952      1.94618      157.652 
0.000229909     0.627694      149.349 
0.000747684     0.272029     -107.103 
0.000171362      2.66541      153.243 
0.000225093     0.332866      57.2648 
8.72154e-05      1.22066      161.862 
0.000141289     0.849706      153.435 
0.000163339     0.965194      124.019 
0.000335233      1.50864      128.541 
0.000351088      2.43655      144.353 
0.000290691      1.60897      145.125 
8.38319e-05     0.342345      6.70984 
8.33547e-05      1.08904      135.744 
0.000281423      3.41104      140.711 
0.000390492     0.412311      75.9638 
7.92092e-05      1.81218      137.684 
0.000520140      2.65646      153.628 
7.78564e-05      3.18057      144.211 
7.73673e-05      2.41868      156.615 
0.000271554     0.360555      3.17983 
7.68543e-05      3.31228      137.447 
0.000137937     0.200998      84.2894 
7.39771e-05      1.23968      162.150 
0.000598357      3.99224      140.488 
0.000181915      1.14490      152.987 
7.21229e-05      2.44499      156.371 
0.000133466      1.84043      137.643 
0.000710196      4.14546      150.838 
0.000570853      3.14560      149.848 
7.02349e-05      1.12089      164.476 
0.000304694      2.57402      134.370 
0.000127222     0.831865      152.819 
0.000131257      1.93866      158.199 
0.000125642      1.42688      148.761 
0.000184839     0.377359      32.0054 
0.000164330     0.981835      123.366 
0.000213613      2.16813      150.124 
0.000162706      1.85526      138.059 
0.000288092      2.43705      156.801 
0.000121398      3.31119      136.958 
6.34024e-05      1.14018      164.745 
0.000105835      2.95845      137.466 
6.19805e-05      2.65149      146.070 
6.16334e-05      1.48189      158.629 
6.11493e-05     0.380526      3.01279 
-0.00191406    0.0400000      0.00000 
0.000284577      3.45416      151.654 
0.000286538      2.16675      156.038 
5.95214e-05      2.17568      150.843 
0.000114654      1.25873      162.429 
0.000112811     0.141421      98.1301 
0.000109226      3.18597      141.116 
0.000243014      3.47287      147.225 
5.73892e-05      1.94288      159.513 
9.79089e-05     0.428019      127.405 
0.000435255      3.81838      135.000 
5.36789e-05      2.67088      140.469 
0.000608728      2.06814      170.538 
5.34237e-05      3.19681      144.421 
9.62560e-05      2.15824      150.584 
5.31407e-05      1.50785      158.199 
0.000182231      3.52619      137.989 
0.000128506     0.824621      165.964 
0.000209678     0.638122      122.196 
9.51738e-05      2.66811      146.310 
0.000122311      1.40584      129.806 
5.08182e-05      1.27781      162.699 
5.06731e-05      3.67396      149.946 
0.000176315     0.644981      150.255 
0.000272497      4.25116      140.919 
9.75780e-05     0.145602     -74.0546 
9.69270e-05     0.126491      108.435 
0.000257618     0.769675      114.567 
0.000137229      3.98321      145.432 
4.94937e-05     0.322490      60.2551 
0.000181129      1.93598      160.067 
4.86641e-05      2.43212      143.696 
0.000125721      1.69800      136.909 
9.35467e-05     0.398497      72.4744 
0.000191869      1.60112      159.528 
4.71571e-05      1.15447      165.964 
0.000361009      3.06914      135.792 
0.000192449      2.56008      134.050 
8.35965e-05      3.42654      140.922 
8.73327e-05      3.68402      149.676 
0.000182438      3.17345      141.397 
0.000151107      1.52434      128.073 
0.000112373      2.88403      142.892 
4.47182e-05      1.29692      162.962 
7.54589e-05      2.42033      144.077 
0.000229421      4.79454      152.687 
0.000210933      2.46333      156.557 
0.000122208     0.128062      128.660 
0.000105744      1.41450      146.535 
0.000125158     0.404969      69.7751 
0.000120906     0.144222      146.310 
4.14392e-05     0.184391      167.471 
4.09911e-05     0.411825     -29.0546 
4.06628e-05     0.252982      71.5651 
0.000233649      1.20433      125.538 
0.000138578      2.18037      142.079 
4.01561e-05      1.17388      166.201 
4.01692e-05     0.247386     -165.964 
4.00566e-05      2.20617      135.000 
6.78966e-05      1.16619      157.834 
3.93599e-05      3.25926      156.109 
7.49031e-05      3.94411      145.746 
0.000146524      3.71214      154.125 
0.000136617      2.65707      146.669 
3.87896e-05      1.62111      141.009 
3.85615e-05     0.461736      4.96974 
0.000198559      4.16293      150.972 
9.69861e-05     0.844038      166.293 
3.80057e-05     0.220907     -174.806 
0.000171022     0.393954      66.0375 
-0.000321555     0.428019     -127.405 
0.000128881     0.357771      26.5651 
3.72341e-05      1.14612      150.751 
0.000129232      3.24099      155.966 
0.000631898     0.215407     -21.8014 
6.32333e-05      3.93192      150.436 
6.80567e-05     0.228035     -164.745 
3.64895e-05      4.78539      152.899 
3.63629e-05      2.62732      140.250 
6.86242e-05      1.17745      159.102 
0.000214513      2.49191      161.274 
0.000186081      3.22006      157.736 
7.02280e-05      4.55688      155.910 
-0.000156977      4.64431      159.848 
0.000121359      1.18878      167.367 
6.49572e-05      2.94374      137.203 
3.50985e-05      2.16148      141.009 
6.24818e-05      1.95387      157.109 
3.53707e-05     0.200000     -180.000 
0.000182126     0.761577      113.199 
0.000210348      4.76806      149.778 
3.46420e-05     0.247386      75.9638 
6.76812e-05     0.116619      120.964 
9.59239e-05      1.68440      137.406 
9.30905e-05      2.10761      133.847 
-9.17945e-05      2.40707      171.399 
3.40671e-05      3.55443      137.965 
6.37144e-05     0.234094     -160.017 
6.53176e-05      3.93289      145.987 
0.000177132      3.71618      156.194 
0.000208920      4.53863      155.807 
3.33160e-05      2.36381      132.600 
3.30696e-05      2.90000      143.130 
5.92044e-05     0.662420      151.113 
6.22312e-05      2.14849      155.821 
3.26341e-05      3.42958      141.392 
3.27394e-05     0.223607     -169.695 
0.000119845      3.73015      154.259 
0.000146128     0.286356      12.0948 
0.000144203      3.75729      139.101 
0.000145192     0.286356     -102.095 
0.000208866     0.128062      141.340 
5.94732e-05      3.29660      136.721 
8.65071e-05     0.627694      120.651 
6.15684e-05     0.164924      165.964 
3.04167e-05      2.36516      131.915 
8.44966e-05      2.44761      136.655 
3.00033e-05      1.87019      138.468 
-0.000112167     0.651460     -17.8787 
5.82753e-05      3.94948      146.149 
2.95619e-05      1.13877      149.381 
2.95245e-05      1.63377      140.464 
2.94969e-05      2.70836      159.692 
0.000111088     0.386264      68.7495 
2.94491e-05      2.03666      135.796 
2.93558e-05      1.31605      163.217 
5.74896e-05     0.181108      173.660 
8.24130e-05     0.208806     -163.301 
-0.000108310     0.585491      82.1467 
5.37546e-05      1.61988      159.775 
-5.47055e-05      1.78045      165.027 
2.76954e-05      2.34887      128.431 
5.42352e-05      2.70148      160.089 
5.39126e-05      4.13879      156.656 
-2.75800e-05     0.416173     -125.218 
2.75051e-05      3.44523      141.600 
2.73171e-05      4.81232      152.796 
5.29310e-05      2.74882      138.540 
2.71588e-05     0.820000      167.320 
2.70345e-05      3.93838      146.391 
2.70179e-05     0.601664      105.422 
2.68143e-05      3.22118      151.844 
8.56056e-05      1.78997      129.560 
5.72446e-05      2.00898      133.386 
8.13178e-05      2.32800      126.968 
5.50071e-05      1.86387      123.179 
2.62706e-05      3.28207      136.481 
5.16985e-05     0.196977     -23.9625 
2.59438e-05      4.52040      155.703 
2.57908e-05      1.21606      126.304 
2.57518e-05      1.85925      121.809 
-2.56711e-05     0.300000     -53.1301 
