! Center RA: 15 12 50.53293,  Dec: -09 05 59.82981 (2000.0)
! Tentative model.
! Flux (Jy) Radius (mas)  Theta (deg)  Major FWHM (mas)  Axial ratio   Phi (deg) T \
! Freq (Hz)     SpecIndex
 0.0143234    0.0400000      0.00000 
0.000774192    0.0565685      135.000 
0.00213803      3.54739     -29.7449 
0.00110160    0.0800000      0.00000 
0.00120619     0.256125     -141.340 
0.00126262     0.144222      146.310 
0.00149649      3.51272     -30.0686 
0.000695070      3.65141     -24.5998 
0.000653769     0.226274     -135.000 
-0.00127209      1.75317     -62.8503 
-0.000544544      1.78885     -63.4349 
-0.00125819      1.77178     -61.6992 
-0.000190877      1.87019     -48.4682 
0.00116461     0.200000     -143.130 
0.00257182      1.56818     -37.7468 
0.000754133     0.178885      153.435 
0.00112577     0.737564     -12.5288 
-0.000513627      2.06495     -45.7848 
0.000941788      1.00000     -16.2602 
0.000579959      1.03846     -15.6422 
-0.000838883      2.12038     -35.7890 
-0.00150284      1.78751     -49.5378 
0.000649657    0.0894427     -26.5651 
0.000403044      3.68782     -24.3411 
0.000881550      3.78312     -19.7761 
-0.000396463      4.66013     -32.7352 
0.000161900     0.126491      161.565 
0.00113523      3.76977     -19.2040 
-0.000512572      4.48018     -37.3815 
0.000554426     0.164924      165.964 
0.000387944      3.67151     -23.7723 
-0.000505139      2.09304     -45.0000 
-0.000207714      4.60487     -32.5857 
0.000204020      1.81417     -14.0362 
0.000379056     0.832346     -35.2176 
6.91602e-05      3.58218     -29.4275 
0.00129531     0.169706     -135.000 
-0.000667396      4.63862     -32.3196 
0.00147304     0.203961      168.690 
0.000690036      1.85300     -13.7363 
-0.000678169      1.96815     -37.5686 
6.20874e-05      3.61707     -29.1161 
-0.000259421      4.69383     -32.4712 
-0.00203300     0.344093     -35.5377 
0.000436292     0.930376     -25.4633 
-0.000399103      1.52840     -6.00901 
0.000752858      5.68014     -37.2734 
0.000322801      5.20830     -36.2538 
0.000154215      3.65207     -28.8108 
-0.000323458      2.20871     -35.4171 
-0.00116701      4.00500     -39.7323 
-0.000314554      1.56461     -4.39871 
0.000280821      3.88680     -23.6631 
0.000158162      1.48647     -23.8059 
0.000283107      3.31494     -19.7468 
-0.000106242      4.75209     -44.3179 
0.000629837      1.52315     -23.1986 
0.000739244     0.824621     -39.0939 
-0.00102764      4.78079     -43.9830 
0.000460121      1.40000     -53.1301 
0.000893764     0.950789     -22.2490 
-4.80508e-05      1.56818     -5.85601 
0.000345151      5.17610     -36.5157 
0.000264933      3.36618     -20.1576 
0.000224102    0.0800000     -90.0000 
-0.000389580      1.60449     -4.28915 
-8.85659e-05      4.72762     -32.2109 
-0.000324063      1.75636     -59.9314 
0.000852934      1.62432     -37.9987 
0.000117918      3.68717     -28.5112 
-4.23690e-05      4.51203     -37.0731 
-0.000317974      4.72288     -27.2161 
-0.000393794      1.93659     -38.2902 
0.000529448    0.0894427     -63.4349 
0.000428998      1.42436     -51.8428 
7.75987e-05      3.70815     -23.5232 
0.000153463      2.38462     -22.6938 
0.000412827     0.233238     -149.036 
-0.000104139      2.17624     -36.0274 
-0.000309853      1.76045     -1.30195 
-0.000443091      3.80841     -36.0274 
-3.79333e-05      4.76151     -31.9544 
0.000308095     0.993579     -49.8991 
-0.000105784      4.45601     -36.9728 
-0.000304864     0.640000      0.00000 
-6.83860e-05      1.76182     -50.5275 
0.000368011      4.78531     -38.2110 
7.22361e-05      2.33238     -22.1663 
0.000134324     0.747262     -15.5241 
-0.000400677      4.68734     -27.4397 
-7.26497e-05      4.79550     -31.7014 
0.000400037      2.34776     -23.0704 
0.000165721      3.27732     -19.9831 
0.000199430      5.71202     -37.0304 
-0.000234076      1.73666     -61.0736 
-6.99761e-05      4.82958     -31.4521 
0.000131902      3.87092     -23.1208 
-0.000163346      4.86374     -31.2062 
6.54482e-05      1.89188     -13.4486 
6.50270e-05      1.92416     -20.6955 
-3.24399e-05      1.95305     -55.0080 
-9.33265e-05      2.35593     -49.8208 
-0.000124764      2.79256     -38.0189 
-6.18760e-05      1.97626     -54.0579 
6.23990e-05     0.850412     -41.1859 
6.18106e-05      2.01316     -20.9558 
-3.10280e-05      4.89800     -30.9638 
3.09660e-05      2.72118     -24.3045 
-6.10169e-05      4.94659     -30.0897 
