! Center RA: 16 42 58.80997,  Dec: +39 48 36.99402 (2000.0)
! Tentative model.
! Flux (Jy) Radius (mas)  Theta (deg)  Major FWHM (mas)  Axial ratio   Phi (deg) T \
! Freq (Hz)     SpecIndex
-0.0211447    0.0400000     -90.0000 
-0.00215670    0.0894427     -63.4349 
-0.00262351      0.00000      0.00000 
-0.00301961    0.0800000     -90.0000 
-0.0141456    0.0400000      90.0000 
-0.0144369     0.126491     -71.5651 
0.00999728      1.61988     -110.225 
0.00479144     0.582409     -105.945 
-0.00433177     0.120000     -90.0000 
-0.00368054    0.0800000      90.0000 
0.000743116      1.56461     -85.6013 
0.00160241      2.45177     -95.6176 
0.00157690      1.58240     -110.726 
0.00118052      2.04978     -84.4007 
0.000411014      1.60798     -84.2894 
0.00101335     0.594643     -109.654 
0.000871784      2.36034     -89.0290 
0.000947058      1.44886     -83.6598 
0.000193422      1.56205     -87.0643 
0.000140076      1.59700     -112.068 
0.000497553      1.39714     -76.7595 
0.000102528      2.28035     -91.0051 
0.000372497      2.24143     -92.0454 
0.000706814      1.63414     -111.541 
0.000437421      2.40832     -101.497 
0.000362639     0.341760     -20.5560 
0.00128253      1.96122     -78.2317 
0.000159170      2.57992     -97.1250 
-0.000410855     0.809938     -110.225 
-0.000410627      6.76225     -79.0889 
-0.000673330      6.51902     -79.0348 
0.000430829      5.56920     -93.2940 
0.000209837      8.53060     -81.6419 
-0.000485581      5.40015     -67.8045 
-0.000439567      7.99400     -67.0273 
0.000824717      8.60976     -74.0912 
0.000407225      1.56051     -88.5312 
0.00108892     0.557136     -111.038 
0.000417249     0.400000     -90.0000 
-0.000711621      4.70846     -99.7824 
0.000524978      8.49103     -81.6027 
-0.000619728      7.70662     -85.2364 
-0.00115109     0.835225     -106.699 
0.000638975      1.56205     -76.6755 
-0.000803252      4.03901     -97.9696 
-0.000674394      5.48365     -87.9098 
-0.000106271      7.74648     -85.2609 
0.000568034      1.35823     -76.3730 
0.000822032      5.57164     -93.7046 
0.000333000     0.304631     -23.1986 
-0.000473330      5.03126     -96.3905 
-3.57784e-05      7.13863     -78.6901 
0.00122473      4.81946     -71.1139 
0.000287612      1.34462     -120.379 
-0.000282257      6.57133     -74.1025 
0.000131240      2.61503     -96.1466 
-0.000849686      1.96774     -63.4349 
-0.000553305      2.90131     -74.8142 
-0.000799098      7.14658     -78.3756 
-0.00111812      8.88801     -78.8418 
-0.000302682      7.78974     -84.9920 
0.000673125      9.26248     -68.1986 
-0.000210420      7.51936     -76.7769 
0.000265490      2.24036     -91.0230 
9.20956e-05      9.15852     -72.1981 
0.000558026      8.32692     -81.7142 
-0.000642047      4.82394     -95.7106 
-0.000300058      3.86036     -79.8545 
5.89432e-05      2.05407     -83.2902 
8.41945e-05      8.64824     -74.1638 
-0.000204038      5.65926     -73.9990 
0.00126550     0.252982     -18.4349 
-0.000342847      4.97948     -84.9306 
-0.000702431      5.41539     -67.4127 
-8.47876e-05      7.63036     -84.8872 
0.000416329      9.14637     -72.4367 
0.000184940     0.401995     -95.7106 
-0.000753268      7.95799     -72.7491 
0.000164211      8.95786     -72.8597 
-9.61981e-05      6.32456     -71.5651 
0.000647218      6.46579     -98.1802 
-0.000281036      5.85177     -74.5388 
-0.000104046      5.48525     -87.4923 
8.17797e-05      8.52488     -81.9079 
0.000137106      9.22128     -71.8008 
0.000541011      2.41661     -102.426 
0.000186879      2.35423     -80.2176 
-0.000131607      5.16015     -89.5559 
-0.000604271      6.27401     -71.7961 
-0.000311707      2.97321     -79.1436 
0.000625220      8.50882     -76.6824 
7.80124e-05      2.61962     -97.0165 
-0.000121229      6.76993     -78.7565 
0.000154392      2.40133     -88.0908 
0.000578642      1.36528     -121.827 
-0.000339464      6.21456     -79.9920 
-2.76819e-05      5.21858     -94.8366 
-0.000178989      7.52861     -76.4806 
-0.000435803      5.67041     -73.6105 
4.16705e-05      2.01435     -83.1572 
0.000673596      5.85286     -65.3616 
-0.000151238      8.00969     -66.7638 
-0.000323047      4.98959     -77.9694 
-0.000697714      5.59614     -99.4623 
-0.000386998      9.68306     -65.3406 
-0.000324580      5.87251     -99.0132 
0.000120369      5.90593     -65.1707 
0.000545627      7.16715     -92.5590 
-0.000656077      8.61515     -79.8379 
0.000202802      1.93494     -82.8750 
-5.10190e-05      5.21536     -94.3987 
-0.000468588      4.87705     -97.0667 
-0.000210687      1.95018     -64.4861 
0.000273089      9.28448     -71.4089 
-0.000427593      6.56012     -67.0308 
0.000498837     0.341760     -69.4440 
-0.000117265     0.824621     -112.834 
-0.000199774    0.0894427      63.4349 
-0.000453666      4.99616     -83.1026 
0.000138076      10.0429     -68.7495 
0.000398785      8.94615     -73.1045 
7.03832e-05      1.28062     -88.2101 
0.000285550      2.40033     -89.0452 
0.000534553      4.56070     -74.7449 
-0.00107672      6.03059     -98.7751 
-0.000262344     0.927793     -97.4314 
-0.000223071      7.03386     -76.5169 
9.18297e-05      4.13415     -61.6992 
-2.38753e-05      5.12000     -90.0000 
-0.000109707      4.99616     -96.8974 
2.36923e-05      8.63741     -74.4191 
0.000210981      4.83256     -70.6652 
0.000219752      4.60626     -92.9866 
-0.000509599      4.42195     -95.7106 
-8.47968e-05      5.25525     -94.3653 
0.000417980      6.64434     -92.0700 
-0.000140964      8.21637     -69.1828 
-0.000305895      5.12016     -90.4476 
4.53700e-05      4.96339     -66.7408 
-6.74787e-05      7.53806     -76.1850 
-0.000521382      9.51697     -63.0042 
-0.000661887      4.80150     -88.5679 
-0.000111058      7.32699     -87.4969 
4.38407e-05      9.97677     -69.0944 
0.000193478      1.52053     -88.4926 
-0.000180253      5.86147     -77.3864 
0.000214863      8.77269     -83.7175 
-0.000396455      7.18777     -80.0659 
-0.000200177      7.44269     -88.4602 
-0.000102037      5.85314     -79.7652 
0.000493882      4.80267     -91.9092 
-2.19154e-05      2.98101     -78.3885 
0.000354848      8.59888     -74.3475 
0.000728540      8.94901     -85.3852 
-0.000222148      1.64000     -102.680 
0.000512920      4.56631     -93.0128 
6.37263e-05      4.97932     -66.3179 
0.000412255      3.87732     -68.1986 
-0.000509647      7.82959     -85.0176 
9.67404e-05      9.08801     -80.3718 
-0.000227363      7.54772     -75.8901 
0.000166898     0.441814     -95.1944 
-0.000174568     0.735391     -112.380 
0.000114437      1.24000     -90.0000 
-0.000567475      3.01728     -75.4111 
0.000188263      4.15326     -61.2134 
0.000172487      6.84047     -90.6701 
0.000263457      2.44818     -94.6859 
-3.82148e-05      7.78635     -85.2852 
7.97828e-05      9.91104     -69.4440 
-0.000470614      6.40612     -64.8750 
0.000275741      4.51876     -100.713 
-9.85474e-05     0.855102     -100.784 
-0.000697034      7.08215     -76.2777 
-0.000572627      6.51153     -79.3803 
-0.000247922      5.00112     -82.6476 
-0.000380955      7.89795     -80.9670 
-0.000389420      5.42070     -101.061 
0.000592811      9.04195     -80.5793 
7.70633e-05      4.95903     -65.7090 
-0.000158664      5.67507     -99.3295 
0.000385385      7.73987     -68.4735 
0.000315070      10.0574     -68.5371 
0.000473112      5.44250     -75.9638 
-0.000433590      6.75195     -68.4507 
-0.000321251      9.44076     -75.0217 
-1.98202e-05      5.50563     -69.5901 
0.000529264      6.75538     -72.4234 
-9.77449e-05      4.97610     -85.3894 
0.000251972      5.10325     -68.8658 
-0.000334405      6.59697     -67.1663 
-0.000216002      9.94786     -67.0434 
0.000322771      6.85169     -74.4222 
-0.000301531      6.90797     -67.8906 
-0.000327945      5.51971     -69.2010 
0.000153907      6.74199     -71.6725 
-0.000131260      9.63004     -65.4576 
-0.000265066      6.24833     -75.1631 
-0.000317941      7.22772     -75.5792 
0.000205005      6.88000     -90.0000 
-0.000175198      9.50427     -65.3764 
0.000117226      1.44499     -85.2364 
3.65376e-05      8.93461     -73.3499 
0.000150513      7.85875     -75.2564 
-0.000481999      4.71610     -102.740 
-0.000179607      5.81378     -79.6952 
-0.000173135      5.12250     -75.5297 
-0.000304771      1.64924     -104.036 
8.27918e-05      9.89707     -69.6608 
0.000336078      8.86711     -71.3198 
0.000229688      5.60700     -92.8624 
-0.000190952      8.28734     -72.8769 
0.000521301      8.59367     -73.5051 
-0.000163574     0.800000     -90.0000 
-0.000112206     0.878180     -120.069 
0.000282964      6.89672     -86.0091 
-0.000293981      4.41814     -95.1944 
-0.000349350      9.54870     -66.5493 
-0.000269588      5.55899     -76.2637 
-6.46572e-05      8.32557     -72.9580 
-6.68790e-05      9.96353     -66.8316 
-0.000347145      3.93954     -77.0926 
0.000304076      1.57175     -75.2564 
-6.57962e-05      7.36174     -88.7546 
0.000566303     0.215407      111.801 
-0.000253707      8.00500     -77.0054 
-0.000460879      4.12311     -104.036 
-0.000283368      3.99940     -98.0491 
-0.000163230      7.90797     -72.9399 
-0.000350638      4.28672     -86.7905 
-0.000388515      8.37386     -71.9112 
0.000384051      6.32582     -96.9003 
0.000201354      6.31392     -67.6594 
7.32626e-05      4.99552     -65.8978 
6.38332e-05      5.86679     -95.4774 
-0.000395083      8.30094     -69.9933 
0.000170699      1.24065     -91.8476 
-4.56266e-05      5.29029     -69.6468 
-7.06877e-05      7.48385     -88.1623 
3.06212e-05      5.97930     -94.6045 
0.000356849      9.47561     -72.5594 
0.000137792      5.88924     -65.5238 
-0.000192534      7.32175     -88.7478 
0.000642635      4.55087     -100.125 
7.58229e-05      4.11825     -60.9454 
-0.000152590      7.55757     -75.5960 
0.000115685      1.92167     -92.3859 
-0.000246615      4.70183     -99.3021 
0.000269534     0.521536     -94.3987 
0.000124800      3.35452     -81.7733 
0.000243882      9.27741     -67.9692 
-0.000386576      1.96977     -66.0375 
-8.66787e-05      7.65297     -71.0915 
-0.000198330      4.47786     -71.2414 
-0.000250440     0.894427     -100.305 
-0.000288636      6.71476     -68.3253 
-4.37042e-05      4.98141     -78.4194 
0.000240738      4.61407     -94.4749 
7.18391e-05      6.28051     -90.7298 
1.52357e-05      9.23385     -71.5651 
4.32172e-05      5.90661     -95.4403 
0.000132276      2.36136     -79.2611 
0.000171588      7.27439     -66.6773 
0.000136292      4.55456     -82.9374 
0.000195558      4.36715     -61.5571 
0.000243068      7.84867     -75.5388 
0.000195196      1.35351     -124.160 
-1.48130e-05      7.95719     -66.9149 
-0.000117979     0.800999     -87.1376 
0.000258968      6.26176     -67.8588 
0.000102498      9.56393     -72.4744 
0.000147203      5.87074     -95.8660 
-0.000190167      8.99511     -82.5906 
2.70396e-05      9.88324     -69.8782 
0.000286580      6.38360     -76.2250 
-0.000178427      10.0114     -66.2002 
0.000234695     0.291204     -74.0546 
-0.000101999      9.43050     -75.2564 
-0.000409678      7.49101     -70.0169 
7.25309e-05      5.01199     -65.4804 
8.81953e-05      1.56869     -109.359 
-0.000168238      9.21442     -73.6105 
0.000143129      9.30376     -62.3332 
-0.000154705      6.58240     -73.7677 
8.94355e-05      9.85957     -69.5800 
0.000378113      7.16815     -68.7329 
6.19399e-05      1.61245     -82.8750 
0.000221487      2.13804     -72.5820 
0.000184743      4.08333     -60.6728 
0.000315510      3.84021     -67.9769 
-5.01935e-05      1.98595     -62.4027 
-0.000141430      5.82107     -79.3078 
0.000220553      5.40370     -75.8609 
9.78448e-05      1.46751     -107.447 
0.000130600      5.75847     -69.6769 
2.66984e-05      8.96973     -72.6155 
-8.52644e-05      5.08063     -90.9022 
-0.000289966      6.52442     -83.3107 
0.000235296      6.89962     -85.6777 
7.27332e-05      6.11359     -96.0090 
-0.000234024      8.92726     -78.8915 
-0.000242076      7.77463     -74.1761 
6.32028e-05      4.23717     -82.4054 
-0.000108969      9.19426     -78.2012 
-0.000129327     0.721110     -109.440 
-0.000127569      2.88721     -100.376 
0.000118523      1.41760     -73.6105 
-0.000156808      1.68808     -103.707 
8.13545e-05      5.11781     -68.4481 
0.000160668      6.32013     -90.3626 
0.000129589      5.62793     -95.7106 
-6.08920e-05      8.35225     -69.8293 
-0.000102656      5.04603     -82.2553 
-6.15355e-05     0.863481     -103.392 
-0.000304942      4.49088     -70.7581 
0.000171413      4.55034     -75.2308 
0.000213536      8.98176     -72.3720 
9.17652e-05      9.57480     -68.6875 
3.66900e-05      9.48768     -72.3290 
0.000281340      5.87496     -83.7460 
-5.56600e-05      7.36098     -89.0659 
-9.13934e-05      7.69083     -71.1881 
-6.80443e-05      5.27651     -70.0540 
-0.000235983      8.88144     -60.8953 
1.25891e-05      8.45742     -81.2950 
9.41854e-05      8.58818     -74.6045 
-0.000189098      2.55155     -76.3995 
-0.000110553      2.86803     -98.0171 
-4.71815e-05      7.60631     -75.3791 
5.66807e-05      7.95678     -70.9274 
-0.000155271      5.42852     -101.476 
0.000201212      7.42892     -73.4190 
0.000187693      4.54981     -83.4373 
-6.77857e-05      4.91675     -97.0094 
-0.000100282      2.97321     -84.5962 
-5.75391e-05      4.96790     -86.7690 
0.000100037      5.14198     -66.6258 
-1.21640e-05      5.86256     -74.1620 
4.46154e-05      8.37234     -81.4828 
-6.91268e-05      7.99370     -78.7463 
8.73785e-05      3.36048     -81.0983 
0.000252294      6.42246     -76.3100 
-4.63400e-05      6.19935     -72.7342 
9.89603e-05      10.0721     -68.3254 
-0.000142630      6.04305     -83.1572 
-0.000175189      4.67709     -102.848 
-1.19558e-05      8.91201     -78.0849 
-0.000186039      9.51201     -66.4534 
-0.000155681      8.98158     -67.2035 
-8.79148e-05      6.19948     -75.4258 
0.000120762      5.67182     -96.0725 
0.000151423      9.28526     -62.5518 
-9.77329e-05      8.92036     -77.8335 
9.72519e-05      1.11427     -68.9625 
-0.000109034      8.27565     -73.1416 
-4.38331e-05      5.17131     -75.2113 
4.43200e-05      4.11300     -82.7368 
-9.66219e-05      4.69553     -66.9296 
-0.000139665      3.97854     -77.2213 
0.000139601      9.43746     -72.4866 
-0.000107937      8.88693     -81.9793 
8.51283e-05      8.24679     -63.8078 
9.58413e-05      4.19237     -82.8750 
-7.56928e-05     0.761052     -86.9872 
2.22771e-05      2.69072     -95.1173 
5.39797e-05      9.84569     -69.7981 
-0.000191141      6.07012     -98.7175 
1.12132e-05      7.21886     -82.6781 
2.16146e-05      2.22926     -99.2933 
1.11990e-05      1.36821     -74.7449 
-8.51436e-05      6.36993     -64.7223 
1.11646e-05      8.41789     -81.2538 
-7.43100e-05      6.29273     -86.3555 
-8.40733e-05      6.21134     -72.3818 
7.36325e-05      7.16938     -83.2715 
-8.39965e-05      2.04978     -107.021 
4.23095e-05      6.88012     -90.3331 
7.35897e-05      5.88340     -88.0519 
-5.25745e-05      7.12000     -90.0000 
-8.44040e-05     0.344093     -125.538 
5.26654e-05      6.77997     -85.6013 
7.36767e-05      8.53904     -74.7920 
8.38137e-05      6.79353     -72.5252 
-7.33288e-05      9.18616     -78.4454 
-2.11260e-05      5.34535     -84.4174 
5.21717e-05      8.27758     -66.6560 
7.23587e-05      4.10307     -60.1858 
3.12461e-05      1.61790     -81.4692 
2.09026e-05      2.69459     -95.9645 
-5.17720e-05      9.16009     -67.1299 
6.25066e-05     0.215407     -21.8014 
-3.12014e-05      7.47743     -70.3049 
2.09492e-05      6.75467     -71.3505 
-5.14171e-05      4.66905     -80.1342 
-2.07668e-05      8.00160     -78.4654 
-3.08158e-05      5.91202     -98.9525 
4.10300e-05      6.11791     -96.3816 
-2.06545e-05      6.29031     -86.7191 
3.08246e-05      1.61047     -75.6186 
-4.11073e-05      9.03398     -67.0679 
-3.06092e-05      4.96580     -87.2298 
4.06641e-05      8.58240     -73.7612 
-1.04100e-05      5.17038     -98.0047 
-3.05749e-05      7.61651     -75.0880 
2.06024e-05      9.82210     -69.4986 
2.03644e-05      4.70982     -69.1022 
-1.03417e-05      1.13701     -129.289 
3.05597e-05      6.24679     -68.1986 
-2.03531e-05      5.48234     -88.3276 
-2.02412e-05      8.92108     -82.2695 
3.04375e-05      6.91352     -84.3554 
2.03060e-05      4.97562     -65.2892 
3.02908e-05      5.69645     -81.9268 
-2.03480e-05      4.02890     -65.9798 
2.01739e-05     0.357771     -63.4349 
1.01774e-05      8.76840     -83.9773 
-2.01306e-05      8.34161     -85.8752 
-2.00832e-05      5.18166     -74.7837 
1.01202e-05      2.48516     -86.3086 
-2.00814e-05      4.96016     -90.4621 
2.00252e-05      6.47951     -69.7751 
-1.00197e-05      6.33378     -64.5678 
9.90671e-06      6.74329     -85.2364 
