! Center RA: 07 21 53.44848,  Dec: +71 20 36.36340 (2000.0)
! Established model.
! Flux (Jy) Radius (mas)  Theta (deg)  Major FWHM (mas)  Axial ratio   Phi (deg) T \
! Freq (Hz)     SpecIndex
   1.51430      0.00000      0.00000 
 0.0577508    0.0282843      45.0000 
0.00877487    0.0848528      45.0000 
0.00804096     0.100000      36.8699 
 0.0215558    0.0282843     -135.000 
 0.0207510     0.113137      45.0000 
 0.0346656    0.0447214     -153.435 
 0.0287464     0.128062      38.6598 
 0.0122660     0.325576      47.4896 
 0.0139183     0.141421      45.0000 
 0.0184409     0.353836      47.2906 
0.00352512    0.0565685     -135.000 
 0.0221350    0.0721110     -146.310 
0.00296029     0.466905      43.2643 
0.00276712     0.453431      41.4237 
0.00451463     0.144222      33.6901 
0.00915718     0.481664      41.6335 
0.00785771     0.156205      39.8056 
0.00429416     0.312410      50.1944 
0.00523501     0.496790      40.1009 
0.00181987     0.328024      52.4314 
 0.0117349    0.0894427     -153.435 
0.00432893     0.316228      55.3048 
0.00416802     0.512250      38.6598 
0.00867574     0.161245      29.7449 
0.00119642     0.524976      40.3645 
0.00408286     0.305287      58.3925 
0.00113180     0.648999      33.6901 
0.00108915     0.511077      30.5792 
0.00239886    0.0824621     -165.964 
0.00103399     0.566392      42.1376 
0.00186516     0.528394      29.4759 
0.00902222     0.101980     -168.690 
0.00172860     0.665733      32.7352 
0.000901560     0.594643      42.2737 
0.000833483     0.580000      43.6028 
0.00216565     0.518845      27.5528 
0.000788767     0.295296      61.6992 
0.00194250     0.608276      43.6678 
0.00182359     0.164924      75.9638 
0.00181159     0.682642      31.8274 
0.000679561     0.322490      60.2551 
0.00266492     0.170880      20.5560 
0.000610517     0.509902      48.1798 
0.00161339     0.528015      24.6236 
0.00152964     0.313050      63.4349 
0.00233123     0.636553      43.7270 
0.000884176     0.477074      56.9761 
0.000868803     0.856037      37.4054 
0.000440453     0.546260      23.7495 
0.000428763     0.895545      29.4275 
0.00199792     0.689638      29.5388 
0.000762619     0.184391      77.4712 
0.00162805     0.582409      15.9454 
0.000710292     0.913017      28.8108 
0.000694770     0.466476      59.0362 
0.00420292     0.164924      14.0362 
0.000908961     0.304631      66.8014 
0.00119273     0.868332      38.4537 
0.00170593     0.181108      83.6598 
0.00165602     0.903549      27.6995 
0.000543196     0.456508      61.1892 
0.00144660    0.0824621     -104.036 
0.00265281      1.36499      10.9807 
0.00115439     0.596657      13.5704 
0.000980291     0.447214      63.4349 
0.00119205     0.880909      39.4725 
0.000549070     0.297321      70.3462 
0.000393768     0.474131      62.3540 
0.000766354     0.921303      27.1213 
0.000614575     0.121655     -170.538 
0.00114248      1.48081      16.4769 
0.000470988     0.600333      60.0184 
0.000320779      1.36015     0.842524 
0.000537212     0.765506      19.8552 
0.00133430      1.38014     0.830316 
0.00154465      2.64401      36.6965 
0.000137999      2.39908      28.9154 
-0.00585779    0.0447214      63.4349 
0.000414907      1.82011      12.0508 
0.000527048     0.772010      73.4429 
0.000649844      1.51169      25.8870 
0.000450037     0.577235      14.0362 
0.000785909      2.41661      28.6861 
0.000814805     0.777946      72.0309 
0.000635245     0.438634      65.7723 
0.000670583      2.58070      17.5924 
-0.00200186    0.0400000      90.0000 
0.000203569     0.332866      57.2648 
0.00109831     0.161245      82.8750 
0.000264892      2.68961      20.4563 
0.000568885      2.25397      41.0424 
0.000374921      1.92925      17.4958 
0.000287666     0.930591      61.7826 
0.000244533      2.64802      21.7211 
0.000331468     0.784347      19.3590 
0.000536872      1.16430     -4.92711 
0.000133970      2.64008      37.3039 
0.000226541    0.0632456     -108.435 
0.000255077      1.34536      11.1429 
0.00185087     0.145602      15.9454 
7.47010e-05      1.52053      26.5651 
7.34725e-05     0.344093      54.4623 
0.000245909      2.84155      22.7750 
0.000189738      2.80927      40.3801 
0.000299522      2.26292      26.7915 
-0.000936409     0.320624      3.57633 
0.000236212      2.62945      21.8823 
0.000413890     0.429418      62.2415 
6.65347e-05      2.59669      40.3141 
0.000122168      2.31041      11.9908 
0.000180498      2.40707      28.2685 
0.000226809      2.45447      14.1495 
0.000400272     0.145602      74.0546 
-0.000446654      2.68924      30.3791 
5.96672e-05      2.61197      27.3499 
-0.000330118     0.141421      135.000 
5.81094e-05      2.58147      40.6013 
5.77298e-05      2.71249      33.5729 
0.000162575     0.557853      14.5345 
5.59951e-05      2.62122      27.7382 
0.000105604      2.73503      32.7604 
0.000105025      2.61297      28.3305 
5.32418e-05     0.893756      40.4622 
5.31396e-05     0.948683      71.5651 
0.000102638     0.141421      81.8699 
5.20513e-05      1.40014     0.818455 
-0.000102539      2.96061      26.9112 
5.21641e-05      2.91218      33.7992 
-5.16690e-05      1.01863      46.5911 
-0.000103002     0.156205     -140.194 
-5.08967e-05      2.46714      11.2188 
