! Center RA: 04 23 15.80073,  Dec: -01 20 33.06555 (2000.0)
! Tentative model.
! Flux (Jy) Radius (mas)  Theta (deg)  Major FWHM (mas)  Axial ratio   Phi (deg) T \
! Freq (Hz)     SpecIndex
 0.0115055    0.0800000      180.000 
0.00149279    0.0565685     -135.000 
0.00230059    0.0400000     -90.0000 
-0.000862817     0.601332     -176.186 
0.00208382      4.79767     -172.816 
0.000505976      2.95053     -164.268 
0.00202162      3.28390      177.207 
0.000643596      4.84248     -172.405 
-0.00105103     0.641249     -176.424 
0.000651492      3.28609      176.511 
0.00182133      3.67696      171.870 
0.00113032      2.90131     -164.814 
0.00140449      4.51486      172.875 
5.63306e-05      4.36165      178.423 
0.00141585      4.32167      178.409 
-0.000421934     0.987927      148.241 
0.00101675      2.52286     -177.274 
-0.000614784      1.34937      168.024 
-0.000457679      1.34164      169.695 
0.000874633     0.683520     -159.444 
0.000491098     0.233238      30.9638 
-8.72258e-05     0.760000      180.000 
-0.000390218     0.800000      180.000 
0.000497179     0.873613      164.055 
0.00135969     0.605310      97.5946 
-0.000193873      1.02215      149.421 
-0.000355248      2.25424     -152.526 
0.000805150     0.912140      164.745 
0.000281349      3.10587     -172.600 
0.000134106     0.120000      180.000 
-0.00127439     0.344093      144.462 
-0.000918543      1.00955      146.310 
0.000445074      3.06620     -172.504 
0.000438578      3.99840     -160.115 
-0.000128272     0.976524      145.008 
-0.000878092     0.840000      180.000 
0.000555974      2.81539     -157.443 
0.000100060      1.51208      142.524 
-0.000221750      2.21883     -152.049 
0.000185077      4.92715     -172.067 
0.000270496      4.04969     -159.775 
0.00154747      1.78885      169.695 
0.000965493     0.268328      26.5651 
3.20623e-05      2.82418     -142.481 
0.000727669      2.81823     -173.480 
0.000127291      4.01218     -159.578 
0.000167503      1.54402      143.427 
0.000172422      2.79256     -141.981 
0.000589308     0.721110     -160.560 
-0.000206904     0.565685     -171.870 
8.68683e-05      2.82446     -167.735 
8.75778e-05      1.13137      135.000 
0.000653036     0.620967      165.069 
0.000488128      1.89061      173.928 
-8.60459e-05      2.18358     -151.557 
0.000139355      3.76191      171.439 
-0.000209366     0.360000      90.0000 
0.000349462      3.18798     -162.474 
-2.78178e-05      2.28980     -152.987 
0.000282477      4.36165     -168.896 
-0.000158661      3.60355      177.455 
0.000708785      1.16000      133.603 
-8.10070e-05      2.14849     -151.049 
-7.87269e-05      1.14543      155.225 
0.000288139      4.93283     -171.607 
0.000143303      1.76726     -174.806 
-0.000103981      1.38101      169.992 
0.000527439      1.47078     -157.620 
0.000344276      4.83735     -172.875 
0.000713357      1.77133     -173.517 
-0.000128513      2.30790     -154.323 
0.000363789      2.86356     -167.905 
0.000399178      2.73642     -142.125 
-0.000867224      1.40911      173.480 
-0.000125033      2.11358     -150.524 
0.000730828      2.41760     -141.044 
0.000121722      3.84666     -163.072 
0.000133453      3.68087     -178.755 
-0.000246452      1.72325      158.199 
-0.000649300      3.56359      177.427 
7.21006e-05      4.33866     -161.732 
-0.000460442      2.34401     -154.747 
-0.000220272      2.07885     -149.982 
0.000151810      1.57632      144.293 
8.97443e-05      3.80841     -162.897 
8.19826e-05      3.72236      171.347 
-0.000176460     0.400000      90.0000 
0.000438943      4.38926     -161.400 
0.000232208      4.12950     -176.112 
0.000396808      5.25844     -175.200 
-0.000233055      3.13050     -153.435 
-0.000430470      3.57435     -174.864 
0.000195079     0.611882      101.310 
0.000135186      1.73159     -173.367 
0.000232858      3.79684     -163.474 
0.000365029      3.65141     -155.400 
-0.000174399      4.52866     -176.455 
7.42040e-05      3.64198     -178.112 
-0.000271021      2.04431     -149.421 
0.000168143      3.83521     -163.644 
-1.97511e-05     0.721110     -176.820 
-0.000213610      1.76045      158.682 
0.000214540      2.39633     -146.575 
0.000109194      1.60897      145.125 
3.45673e-05      1.18794      135.000 
5.19226e-05      4.55456      172.937 
-0.000170462      4.52637     -176.961 
-3.50883e-05      2.29085     -155.225 
8.46200e-05     0.226274      45.0000 
0.000135847     0.950789      165.379 
0.000151537      1.77178      151.699 
-0.000117785      3.39458     -158.575 
-5.04063e-05     0.268328     -153.435 
-6.69856e-05      4.43441     -158.295 
9.94693e-05      1.43388     -157.011 
6.58982e-05      2.90269     -168.071 
1.68626e-05      3.72086     -178.768 
-4.91862e-05      2.32723     -155.638 
1.67905e-05      2.85237     -157.751 
1.69133e-05      3.82413     -164.219 
-6.57687e-05      2.41628     -173.346 
3.30570e-05      4.89931     -171.076 
1.65688e-05      5.25525     -175.635 
1.65357e-05      3.68283      171.254 
3.25535e-05      3.68196     -178.132 
-1.64204e-05     0.393954     -156.038 
-3.25690e-05      1.44886      173.660 
1.61998e-05      2.05407      173.290 
1.61576e-05     0.113137     -45.0000 
