! Center RA: 04 33 11.09553,  Dec: +05 21 15.61921 (2000.0)
! Established model.
! Flux (Jy) Radius (mas)  Theta (deg)  Major FWHM (mas)  Axial ratio   Phi (deg) T \
! Freq (Hz)     SpecIndex
  0.719051      0.00000      0.00000 
  0.353259    0.0282843      45.0000 
  0.103135    0.0721110     -123.690 
  0.199124     0.100000     -126.870 
  0.193870    0.0565685      45.0000 
  0.183388     0.128062     -128.660 
 0.0784584    0.0848528      45.0000 
  0.225392    0.0721110      56.3099 
  0.133502     0.144222     -123.690 
 0.0335232     0.100000      53.1301 
 0.0628033     0.161245     -119.745 
  0.178999    0.0894427      63.4349 
 0.0361861     0.178885     -116.565 
 0.0166272     0.116619     -120.964 
 0.0827278     0.223607     -116.565 
 0.0424755    0.0894427     -116.565 
 0.0624864     0.241661     -114.444 
 0.0183939    0.0632456     -108.435 
 0.0654633     0.116619      59.0362 
0.00718231     0.268328     -116.565 
 0.0226081     0.394462     -120.466 
 0.0389748    0.0824621     -104.036 
0.00560572     0.215407     -111.801 
 0.0155459     0.411825     -119.055 
0.00865738     0.420476     -115.346 
 0.0145725      1.17047     -109.983 
0.00383524     0.438634     -114.228 
 0.0104202     0.134164      63.4349 
 0.0355185      1.18929     -109.654 
0.00675065     0.205913     -119.055 
0.00356011     0.456946     -113.199 
0.00328819    0.0565685      135.000 
0.00628696     0.493964     -111.371 
 0.0108162      1.17745     -110.898 
0.00300972     0.144222      56.3099 
0.00439750     0.101980     -101.310 
0.00518777     0.377359     -122.005 
0.00829188     0.546260     -113.749 
0.00749483    0.0632456      161.565 
0.00760950     0.161245      60.2551 
 0.0114850     0.100000     -90.0000 
0.00262482     0.332866     -122.735 
0.00244168     0.233238     -120.964 
0.00800323     0.172047      54.4623 
0.00326475     0.487032     -109.179 
0.00232527    0.0800000     -90.0000 
0.00750510     0.599333     -115.710 
0.00314299     0.388330     -124.509 
 0.0115678     0.962081     -110.695 
0.00536836     0.461736     -107.650 
0.00647980    0.0721110      146.310 
0.00494299     0.372022     -126.254 
0.00183849     0.980816     -110.283 
0.00180510     0.188680      57.9946 
0.00340120     0.652993     -117.350 
0.00173982     0.216333     -123.690 
 0.0106620     0.200000      53.1301 
0.00641295     0.480833     -106.928 
0.00253707     0.680000     -118.072 
0.00132567     0.240832     -131.634 
0.00432232     0.707107     -118.740 
0.00505975    0.0894427      153.435 
0.00122073     0.384187     -128.660 
0.00112407     0.226274     -135.000 
0.00280647     0.943398     -111.125 
0.000959964     0.254558     -135.000 
0.00176554     0.384708     -117.897 
0.000897813      1.02489     -107.021 
0.00151208     0.284253     -140.711 
0.00144814     0.635295     -118.179 
0.00377092      1.04403     -106.699 
0.00220145     0.212603      48.8141 
0.00145699     0.924770     -111.571 
0.000759797     0.256125     -141.340 
0.00328188      1.20167     -108.435 
0.00138368     0.107703     -68.1986 
0.000727559     0.412311     -129.094 
0.00131692     0.734302     -119.358 
0.000709557    0.0848528      135.000 
0.000683621     0.456070     -105.255 
0.00174076     0.100000      143.130 
0.00170783     0.917606     -110.410 
0.000625345     0.226274      45.0000 
0.000621159     0.379473     -108.435 
0.000600039     0.272029     -143.973 
0.000576536     0.256125      51.3402 
0.000562577     0.452548     -135.000 
0.00103816     0.116619     -59.0362 
0.00355795     0.313050      26.5651 
0.000537918     0.322490     -82.8750 
0.000977814    0.0894427      116.565 
0.000529615     0.608276     -117.408 
0.000528066      1.22066     -108.138 
0.000967503     0.761577     -119.932 
0.00134628     0.288444     -146.310 
0.000507159     0.272029      53.9726 
0.000496477      1.17388     -113.070 
0.000906502     0.466905     -136.736 
0.000926284      1.21458     -107.241 
0.000474883     0.950789     -112.249 
0.000848002     0.277849      59.7436 
0.000828048     0.844038     -103.707 
0.000822068      1.03846     -105.642 
0.000422825     0.325576     -79.3803 
0.000795376      1.19883     -117.848 
0.00471123     0.100000      126.870 
0.000408925     0.128062     -51.3402 
0.00168070      1.23369     -106.966 
0.000385800     0.398497     -107.526 
0.00119536     0.141421     -45.0000 
0.000684230      1.03325     -104.574 
0.000933812     0.481664     -138.366 
0.000652376     0.958541     -113.356 
0.000681852     0.286356      65.2249 
0.00137406     0.316228     -71.5651 
0.00166052      1.21078     -120.801 
0.00120371     0.820000     -102.680 
0.000331818     0.751798     -118.610 
0.00309311      1.60462     -112.730 
0.000323950     0.404969     -110.225 
0.000320908     0.305287     -148.392 
0.00112619      10.8589     -115.999 
0.00113646      2.96284     -114.316 
0.000597748      10.8501     -115.904 
0.00247427      2.95296     -114.829 
0.000991919      1.04785     -103.241 
0.00164586     0.278568      68.9625 
0.000281082      10.7343     -114.082 
0.000516540      10.8681     -115.858 
0.000513241     0.769415     -117.897 
0.00104685     0.572713     -114.775 
0.00113197      10.7261     -113.984 
0.000642704      10.8645     -113.545 
0.000430774      1.22115     -121.608 
0.000478131     0.412311     -112.834 
0.00204539      11.0431     -113.594 
0.00109097      1.25284     -106.699 
0.000465089     0.966644     -114.444 
0.00157985     0.516140     -144.462 
0.00113926      3.72086     -116.841 
0.000411256     0.322490     -150.255 
0.000451831      10.5226     -114.958 
0.000625954      3.00832     -111.448 
0.00222501      4.01487     -111.324 
0.000219371     0.156205     -39.8056 
0.000539659     0.760263     -116.565 
0.000744693      10.4866     -113.729 
0.00135152     0.304631      23.1986 
0.00110198      3.68456     -110.993 
0.000388719      10.5129     -115.102 
0.00131929     0.200000     -36.8699 
0.00105626      1.04346     -102.171 
0.000181496      10.8725     -113.641 
0.000179391      2.96142     -115.181 
0.000340983      11.0455     -113.362 
0.000332020      10.3343     -113.737 
0.000173311      3.02695     -111.309 
0.000172216      10.8677     -116.093 
0.000243136     0.940213     -113.839 
0.000168884      3.31421     -113.471 
-0.00540820     0.428019      52.5946 
0.000318750      10.5214     -115.201 
0.000437980      1.27201     -106.440 
0.000783109      10.8136     -116.470 
0.000310432     0.367151     -150.642 
0.000549400      3.03427     -111.661 
0.000964842      1.59700     -112.068 
0.000420740      3.32470     -113.018 
0.000152953      1.37899     -109.486 
0.000754733      10.0400     -112.734 
0.000728554     0.291204      74.0546 
0.000648030     0.538517     -111.801 
0.000146947      1.59223     -122.692 
0.000399077      10.4969     -113.586 
0.000145523     0.421900     -121.430 
0.000394697      10.3262     -113.636 
0.00131945      1.60312     -123.294 
0.000453795     0.335261     -72.6460 
0.000724802      1.39786     -109.213 
0.000258639      10.8565     -113.448 
0.000252207      10.5119     -115.346 
0.000361312     0.384708     -152.103 
0.000986342     0.297321      70.3462 
0.000131481      1.37244     -108.699 
0.000313971     0.769675     -114.567 
0.000126865      11.0376     -113.267 
0.000306710      1.52971     -115.560 
0.000213911     0.824621     -104.036 
0.000222298      2.67081     -112.917 
0.000226895     0.432666     -123.690 
0.000452270      3.71187     -116.565 
0.000478642      3.31693     -112.700 
0.000115690      4.02631     -110.956 
0.000314407      10.3128     -113.184 
0.000368556      2.66030     -113.481 
0.000314480      11.1836     -117.940 
0.00118667     0.304631      66.8014 
0.000212547      10.8486     -113.351 
0.000351844      3.26466     -116.565 
0.000302052      1.03942     -101.094 
0.000201446      10.5589     -114.866 
0.000290827      2.94462     -114.476 
0.000105585      3.68049     -111.686 
0.000194562     0.465188     -154.537 
0.000254880      3.06777     -112.218 
0.000185063      10.5205     -115.445 
0.000261798      1.26649     -105.573 
0.000261386      10.8883     -117.930 
0.000252503     0.340000     -151.928 
0.000422470      10.0293     -112.884 
0.000180427      4.01920     -110.690 
0.000257061      10.8407     -113.254 
9.30266e-05     0.453431     -131.424 
0.000340370      11.1826     -117.711 
0.000172083      3.67315     -111.396 
0.000170050      2.94333     -115.346 
9.01676e-05      10.6916     -113.832 
0.000169265      2.66833     -113.875 
8.87960e-05      10.3485     -114.187 
0.000237419      1.03576     -100.008 
0.000233906     0.862786     -134.061 
0.000859547     0.313050      63.4349 
0.000157411      11.0297     -113.171 
8.53344e-05     0.466905     -133.264 
-0.000401236      1.79254     -125.463 
0.000158787      10.3050     -113.082 
8.31741e-05      3.66939     -112.091 
0.000159045      3.99224     -103.619 
0.000151839      10.8789     -117.837 
0.000156382      1.20067     -119.982 
0.000152261      10.5673     -114.964 
7.97925e-05      1.03247     -98.9149 
7.96890e-05      10.3078     -112.834 
0.000151829      11.1448     -116.197 
-0.000226878      3.90118     -118.142 
-0.000373428     0.984073     -127.569 
0.000150758     0.520000     -112.620 
0.000149644      4.16005     -117.797 
0.000147783      1.61419     -123.887 
7.50778e-05     0.216333     -33.6901 
7.42134e-05      2.93639     -114.121 
7.43037e-05     0.444072     -125.838 
7.36092e-05      3.68109     -109.026 
-0.000147016      1.78101     -124.939 
7.33383e-05      1.29120     -106.189 
7.29926e-05     0.778203     -115.907 
-7.16247e-05      3.89179     -117.882 
