! Center RA: 16 42 58.80997,  Dec: +39 48 36.99402 (2000.0)
! Tentative model.
! Flux (Jy) Radius (mas)  Theta (deg)  Major FWHM (mas)  Axial ratio   Phi (deg) T \
! Freq (Hz)     SpecIndex
 0.0411911    0.0400000     -90.0000 
0.00664857     0.243310     -80.5377 
0.00337737    0.0565685     -45.0000 
0.00102383     0.240000     -90.0000 
0.00317900      1.64438     -108.435 
0.00303492    0.0400000      0.00000 
0.00135451      1.68238     -108.004 
0.00412102      1.65747     -109.747 
0.000457997     0.282843     -81.8699 
0.00158811     0.200000     -90.0000 
0.000347041     0.362215     -96.3402 
0.000608778     0.407922     -101.310 
0.00163026     0.401995     -95.7106 
0.00133921     0.291204     -74.0546 
0.000167602     0.447214     -100.305 
0.000832299      1.67045     -106.699 
8.12454e-05     0.494773     -104.036 
0.00112717     0.544059     -107.103 
0.000991585      0.00000      0.00000 
0.000549309     0.160000     -90.0000 
0.000114341      5.60914     -93.2705 
0.000716156      5.52521     -92.4896 
0.00115197      2.20581     -94.1596 
0.000784344      5.65148     -93.6522 
0.000105378      2.32310     -92.9609 
-0.00147238     0.906863     -131.424 
0.000662222      2.36305     -92.9108 
0.00239649     0.215407      111.801 
0.000429918     0.557136     -111.038 
-0.00122179      4.36513     -62.7305 
0.000489337      4.16346     -81.7142 
0.000867299      6.00853     -93.0529 
0.000360801     0.486621     -99.4623 
0.000931460      4.38634     -83.7175 
0.000406375      8.15421     -80.3991 
0.00103240      2.16592     -94.2364 
-0.000687675      2.85377     -84.3693 
0.000345654      5.89956     -94.6669 
0.000145464      1.69800     -105.018 
0.000527500      6.25664     -82.2843 
0.000149852      5.16062     -90.8882 
0.00107857      6.43814     -81.0644 
0.000998213      1.07703     -68.1986 
-7.49227e-05      2.81624     -78.5305 
0.000605234      5.20062     -90.8814 
-0.000501311      2.82446     -77.7352 
0.000426380     0.594643     -109.654 
0.000585496      5.48365     -92.0902 
-0.000354404      2.76926     -79.1770 
0.000276775      4.68273     -91.9581 
0.000123113      4.16941     -81.1703 
-0.000186047      5.22532     -70.3167 
0.000153945      4.96790     -93.2310 
0.000223081     0.481664     -94.7636 
0.000803854      2.44000     -90.0000 
0.000224572      5.65417     -85.9433 
8.99864e-05      2.68477     -93.4166 
0.000567677      6.12640     -87.3805 
-0.000474141      6.31405     -73.0574 
-0.000401680      9.26628     -63.3243 
0.000295205      2.09990     -107.745 
3.13801e-05      2.45177     -95.6176 
0.000174239      8.11478     -80.3520 
0.000529699      8.89521     -65.2788 
0.000567075      1.34937     -101.976 
0.000118792      6.00387     -80.4122 
-0.000995342      5.84452     -78.1517 
0.000164309      2.45601     -96.5463 
-0.000296379      4.35118     -96.8637 
-0.000933133      3.79326     -75.9638 
0.000289601      2.72265     -92.5261 
0.000412786      5.85969     -94.6987 
0.000217132      5.03587     -96.8428 
0.000260571      5.58813     -84.2486 
-0.000725387      5.24976     -70.8748 
0.000573787      7.48438     -77.9694 
0.000536205      6.92416     -91.9863 
-0.000260128      8.04159     -66.2401 
0.000520089      6.05006     -80.1017 
2.82250e-05      4.30070     -80.3625 
-0.000872738     0.379473     -161.565 
8.15939e-05      5.95785     -80.7274 
0.000217042      5.00576     -92.7481 
5.36119e-05      6.30149     -85.2666 
-0.000277138      5.16387     -69.5998 
0.000426027      8.75635     -66.0109 
-0.000708561     0.877268     -133.152 
0.000204614      5.61156     -93.6782 
7.51520e-05      4.34695     -79.9309 
0.000190212      4.96580     -92.7702 
-0.000874353      6.97665     -77.0793 
-0.000623946      7.53233     -67.5206 
0.000235034      5.91202     -81.0475 
-0.000358591      9.02485     -83.1270 
0.000130831      8.12158     -80.0738 
-0.000186495      4.70523     -75.7275 
0.000364795      7.14199     -85.5028 
0.000149346      4.12989     -81.0851 
-0.000716932      4.69553     -66.9296 
0.000402308      3.87525     -101.310 
0.000436694      5.03126     -96.3905 
8.98204e-05      8.93944     -66.5321 
0.000569068      2.72470     -93.3665 
0.000141559      4.39090     -83.1987 
0.000441805      8.81970     -73.1265 
9.53476e-05      6.66357     -85.1792 
-0.000296048     0.944034     -126.384 
-7.12944e-05      8.93505     -78.6398 
0.000536724      3.97854     -77.2213 
-0.000230062      2.37217     -84.1933 
0.000194920      1.14543     -77.9052 
0.000186131      6.21701     -82.2348 
-0.000200998      8.72294     -82.0928 
-0.000785362      1.68000     -90.0000 
-0.000157547      7.51702     -73.3008 
-0.000145568      4.39090     -96.8013 
0.000220856      8.06870     -80.5844 
-0.000445281      6.82079     -76.7787 
-0.000476071      6.33593     -68.1314 
0.000650869      3.23011     -82.1709 
-0.000172115      8.55158     -77.8491 
-8.52692e-05      5.60742     -75.9638 
0.000349760      5.00400     -87.7094 
0.000509299      5.97930     -61.2060 
-0.000643535      8.09642     -70.6699 
0.000613611      7.10211     -85.4775 
4.51514e-05      8.76986     -73.3008 
-0.000812389      8.11202     -84.9079 
0.000123588      5.08252     -91.8040 
0.000350892      9.15860     -68.4774 
0.000618891      5.59228     -83.8408 
-0.000394044      7.90281     -85.6458 
0.000195189      1.16000     -90.0000 
-0.000467208      3.81030     -94.2142 
8.71196e-05      2.11244     -108.778 
-0.000122000      5.75347     -76.7367 
-0.000322060      7.68843     -87.3162 
-0.000134333      6.38799     -67.9321 
-0.000166714      7.69103     -72.1305 
0.000239393      6.87372     -84.3226 
-8.25831e-05      2.68477     -86.5834 
0.000179513      4.44630     -81.7241 
-0.000273930      6.47951     -69.7751 
0.000810057      4.79466     -64.2900 
8.12902e-05      5.69407     -85.9717 
-0.000922017      2.89358     -84.4470 
0.000406217      9.05176     -76.4550 
0.000644469      8.89134     -68.6294 
-0.000576372      7.38474     -67.0459 
-0.000159690      9.30204     -63.4349 
-0.000210011      4.34658     -96.3402 
-0.000202397      8.94302     -78.3885 
0.000170115      6.66705     -84.8367 
-6.34893e-05      1.64000     -90.0000 
0.000555574      2.15035     -108.435 
0.000180981      8.50045     -74.7212 
0.000333482      2.88028     -90.7957 
0.000370957      6.20116     -91.1088 
-0.000147350      8.07822     -66.3544 
-0.000551825      4.02631     -69.0442 
0.000230260     0.572713     -114.775 
-0.000247434      5.08488     -77.2756 
0.000540084      6.21173     -82.6004 
-0.000417478      2.32860     -85.0729 
0.000199583     0.521536     -94.3987 
-0.000438725      3.56000     -90.0000 
0.000481308     0.368782     -102.529 
0.000319938     0.609262     -113.199 
0.000320076      5.91838     -80.6650 
-9.00914e-05      6.60981     -74.1975 
0.000101787      7.08915     -92.9108 
-0.000448584      7.12775     -66.1681 
-0.000131652      4.07804     -68.7204 
-0.000369685      2.64273     -87.3974 
0.000178034      6.20052     -90.7393 
-0.000260254      4.69553     -76.2005 
-0.000387689      8.68332     -82.0565 
0.000163331      8.07534     -80.3044 
0.000476984      9.76729     -63.7498 
0.000222532      5.76222     -88.4089 
-0.000205237      1.60050     -91.4321 
-9.20124e-05      9.24865     -62.9917 
0.000591314      8.45506     -69.5074 
0.000636588      3.81345     -85.1864 
0.000147597      5.87946     -83.3585 
-8.47259e-05      6.62951     -77.8087 
-0.000107789      7.50562     -73.5932 
-0.000128227      6.46430     -72.3499 
-0.000537041      7.74142     -71.9395 
-3.73498e-05      4.41416     -75.8378 
5.49424e-05      3.88330     -101.889 
7.80933e-05      8.54962     -74.5333 
-0.000290918      1.91541     -61.2940 
-0.000106159      4.23093     -74.6499 
0.000108926      6.84292     -88.3252 
-0.000258210      8.56009     -77.5874 
-1.88011e-05      5.89196     -77.8509 
6.76061e-05      1.15447     -75.9638 
3.62760e-05      1.30231     -100.620 
0.000764034      6.92566     -92.3171 
0.000324474      3.04105     -88.4926 
0.000259071      1.35823     -103.627 
-0.000293327      5.84616     -67.4706 
0.000509545      1.30292     -72.1213 
-0.000106867      4.34695     -63.1992 
0.000460077      8.48999     -74.9816 
6.63030e-05      5.61427     -94.0856 
0.000155571      5.48525     -92.5077 
-0.000261693      7.28593     -71.7640 
-0.000199780     0.976524     -124.992 
-0.000223440      5.66646     -76.9448 
1.75159e-05      6.43205     -81.4164 
-8.35351e-05      6.90275     -94.6534 
-0.000151927      9.33784     -63.5447 
0.000412157      1.71020     -79.2157 
-1.73074e-05      4.25206     -94.3160 
-0.000433969      8.71238     -64.1408 
-5.01468e-05      2.72265     -79.8457 
0.000472350      4.21046     -104.300 
0.000208004      4.45224     -81.2147 
-0.000206681      4.36568     -76.2184 
0.000278742      3.77020     -72.7185 
0.000273568      2.70732     -102.804 
0.000249490      6.88418     -88.0021 
-0.000134260      2.88139     -76.3496 
4.94938e-05      3.96989     -77.7843 
0.000290493      10.0801     -67.6075 
-7.67633e-05      4.15018     -63.6819 
0.000193690      10.2000     -64.9424 
-0.000267593      4.20932     -93.8141 
-0.000344659      4.38634     -96.2825 
0.000325869      7.64513     -69.4790 
0.000443173      3.84416     -102.011 
-0.000222881      9.21303     -62.8787 
-0.000565079      6.86289     -94.6804 
1.61614e-05      6.16467     -87.7688 
0.000187644      5.54833     -95.7928 
0.000162678      7.60042     -89.3969 
4.64091e-05      8.02277     -80.8195 
-8.29135e-05      8.64370     -82.0199 
-0.000326308     0.793977     -139.086 
-9.78320e-05      6.50243     -72.4567 
0.000459861      3.08104     -88.5121 
-0.000264002      7.49442     -73.8866 
-0.000116675      2.68328     -79.6952 
-0.000145690      3.56202     -88.0694 
4.53528e-05      8.95544     -66.2974 
0.000272535      6.29717     -62.7839 
-0.000424270      6.04635     -63.2654 
-0.000251165      8.90384     -78.3367 
4.60969e-05      3.99299     -79.0278 
0.000129342      2.57123     -95.3558 
0.000394966      1.17098     -97.8533 
-5.87045e-05      4.22052     -75.1735 
4.49186e-05      6.16325     -88.1404 
0.000131560      2.89468     -101.155 
-0.000182236     0.968297     -128.290 
7.24879e-05      4.99151     -96.4416 
8.48994e-05      3.17717     -79.1145 
0.000170856      8.12857     -79.7960 
0.000301874      8.86927     -85.3437 
-8.14054e-05      1.93039     -95.9469 
0.000238289      7.53191     -77.7352 
0.000127847      4.68427     -92.4470 
-7.87248e-05      9.02973     -82.8750 
0.000126724      4.83074     -64.4959 
0.000315457      2.84113     -91.6135 
0.000234311      7.96362     -69.1071 
0.000260961      4.02492     -79.6952 
1.47039e-05      7.12719     -92.5734 
4.07131e-05      6.48012     -89.6463 
-0.000287127      9.01137     -81.8339 
0.000190336      6.88570     -87.6695 
-0.000135709      3.81345     -94.8136 
-0.000160058      5.34026     -81.3844 
0.000173506      7.99330     -82.2348 
-0.000288756      7.00685     -77.4712 
-2.69498e-05      9.01714     -81.5823 
-0.000146169      7.86293     -85.6236 
-0.000317274     0.769415     -117.897 
-4.05996e-05      6.60594     -69.8094 
8.13105e-05      8.01648     -81.1017 
-0.000339247      1.36059     -88.3153 
0.000182335      3.16986     -79.8245 
-0.000241253     0.721110     -86.8202 
-0.000145283      8.13693     -69.8725 
-0.000109924      6.29158     -78.2614 
0.000242815      5.80345     -88.0251 
-0.000258840     0.341760     -159.444 
6.58741e-05      9.21025     -70.4633 
8.95165e-05      2.88721     -100.376 
-0.000149662      8.68894     -81.7953 
5.38695e-05      7.13896     -85.8229 
2.76048e-05      9.07727     -65.8068 
0.000218139      10.2591     -65.8334 
-0.000142630      2.64394     -79.5401 
8.99770e-05      6.12118     -88.8767 
-2.55069e-05      6.62082     -73.8644 
-0.000119121      7.42159     -67.1663 
-0.000207175      4.69911     -78.2118 
-0.000150176      1.38679     -123.232 
0.000293875      5.62921     -70.9213 
-6.41413e-05      2.83323     -76.9448 
-8.31327e-05      8.09434     -66.0950 
0.000338121      2.16333     -109.440 
0.000202978      4.98718     -95.9850 
1.35302e-05      8.05233     -75.6186 
2.59731e-05      1.40684     -104.826 
0.000299571      9.73143     -63.6456 
-3.79802e-05      4.16807     -63.1890 
2.56846e-05      4.84066     -90.9470 
-0.000283923      3.56359     -87.4266 
7.58305e-05      9.09373     -65.5769 
0.000171086      7.52043     -89.3905 
1.32885e-05      5.01199     -98.2594 
-0.000173538      5.65756     -77.3394 
0.000146528      4.80067     -90.9548 
0.000148263      8.19327     -63.9353 
0.000117946      2.59384     -109.832 
-0.000206729     0.288444     -33.6901 
-1.30046e-05      8.05710     -77.9648 
2.49228e-05      1.87489     -78.9298 
3.74688e-05      6.08947     -80.1664 
-0.000125599      6.35094     -67.7965 
6.79797e-05      5.81983     -94.7309 
-0.000145099      9.35573     -63.3254 
-0.000134640      4.06389     -61.1645 
0.000192601      9.11939     -75.7809 
-4.46469e-05      6.40312     -67.6004 
-0.000186265      7.83153     -72.7682 
3.66643e-05      5.96161     -73.6322 
1.26237e-05      6.05706     -79.7290 
0.000244346      8.98888     -85.4057 
-0.000206659      8.72853     -81.8328 
0.000110879      1.11571     -75.4655 
-0.000121520      8.04885     -78.2433 
-0.000170209      5.40947     -86.6087 
0.000296893      7.24276     -68.9625 
8.13342e-05      4.72271     -91.9415 
5.86092e-05      6.01771     -79.6611 
7.68563e-05      5.90105     -74.2680 
-0.000221024      3.77359     -94.8645 
0.000130111      5.58068     -94.9342 
-0.000109586      2.93993     -75.0184 
-4.73979e-05      7.84347     -72.4891 
3.63168e-05      9.81957     -68.2419 
4.64034e-05      5.04571     -87.2737 
0.000173118      6.33277     -62.9494 
0.000108669      9.42380     -71.9496 
0.000196645     0.509117     -135.000 
0.000186158      5.19507     -80.2476 
0.000151085      3.76021     -90.6095 
1.19729e-05      8.00370     -75.8249 
0.000150197      1.36821     -105.255 
5.34956e-05      4.98462     -99.2356 
2.35878e-05      5.55698     -96.6135 
6.57873e-05      8.83140     -72.8782 
7.67766e-05      4.39345     -79.5085 
-1.18763e-05      6.56841     -69.6890 
6.45849e-05      6.04649     -92.6542 
-0.000127979      6.80000     -64.9424 
1.18288e-05      9.36000     -67.3801 
9.81733e-05      8.62684     -71.9011 
0.000116938      6.09643     -79.7960 
7.50133e-05      9.14672     -65.4524 
-2.29547e-05      6.30251     -73.4052 
-0.000192234      2.07885     -101.094 
0.000160060      9.49610     -66.6746 
-0.000107253      2.79428     -76.7595 
7.53933e-05      9.48768     -65.5960 
0.000106735      9.83447     -68.0255 
1.16085e-05      6.02740     -74.2113 
0.000105682      2.86803     -98.0171 
6.49134e-05      6.12052     -89.2511 
0.000160454      8.84470     -80.3673 
2.25985e-05      4.97835     -98.7812 
9.47915e-05      5.53245     -97.8958 
-0.000137387      5.26574     -95.6673 
0.000178826      6.01664     -74.5778 
-5.37685e-05      4.12311     -92.2240 
-8.44818e-05      5.27469     -71.4277 
-9.49983e-05      5.80923     -67.3194 
-2.21536e-05      4.24924     -93.7782 
5.27784e-05      7.15374     -74.0986 
-4.32208e-05      8.81172     -77.4148 
-8.36950e-05      5.36731     -87.0097 
-8.31569e-05      6.23910     -77.0329 
-5.40668e-05      7.12404     -77.6806 
-1.11948e-05      6.48198     -77.1644 
8.39994e-05      7.19222     -74.1859 
-3.29573e-05      6.79400     -81.5360 
3.20629e-05      7.53063     -86.9552 
-6.25848e-05      7.67885     -72.4145 
4.30388e-05      7.70704     -80.4399 
0.000114181      2.57029     -69.0265 
5.11728e-05      6.16117     -91.1160 
-8.37088e-05      6.25140     -97.3524 
-4.18253e-05      8.03243     -71.1139 
1.10679e-05      5.69702     -85.5704 
-6.28352e-05      6.47654     -72.0127 
-5.16730e-05      4.08176     -91.6847 
-4.19241e-05      1.72000     -90.0000 
2.13126e-05      1.67141     -111.038 
5.21596e-05      6.02501     -79.2869 
9.29698e-05      8.80264     -62.3870 
-8.13614e-05      4.71135     -66.4820 
-6.17898e-05      6.63578     -81.3326 
8.22932e-05     0.341760     -110.556 
4.19344e-05      8.16794     -79.8457 
5.17785e-05      8.61450     -72.1540 
-5.13913e-05      6.74863     -81.8219 
2.12466e-05      8.80527     -80.3237 
7.13888e-05      4.73692     -85.1560 
-3.05706e-05      6.52098     -77.2425 
-2.09259e-05      5.78937     -78.8453 
-1.05633e-05      7.33648     -71.5651 
3.06212e-05      9.06236     -79.8309 
-7.03197e-05      8.64935     -81.7575 
4.05016e-05      7.99880     -81.9509 
-6.05111e-05      5.79724     -78.4575 
7.04855e-05      2.88111     -91.5911 
6.03794e-05      8.74034     -79.7186 
3.03390e-05      4.94223     -101.674 
1.04056e-05      3.23580     -81.4692 
3.01475e-05      1.17712     -99.7824 
-1.03796e-05      8.16088     -70.2328 
3.99103e-05      2.57029     -110.973 
-3.98390e-05      8.85076     -77.4712 
1.99851e-05      5.00576     -87.2519 
4.99206e-05      7.52351     -78.0329 
2.02518e-05      4.86687     -64.6986 
-4.97632e-05      7.17172     -77.4365 
-2.03159e-05      1.32061     -88.2643 
1.99596e-05      8.81208     -80.0673 
3.99836e-05      7.70049     -80.7334 
3.98969e-05      10.2756     -65.6299 
-2.00419e-05      5.33442     -81.8091 
3.97024e-05      6.89638     -69.9885 
2.98557e-05      5.35014     -101.646 
1.98956e-05      10.0649     -67.8180 
1.97861e-05      3.87092     -66.8792 
-2.97054e-05      3.82099     -96.0090 
-2.97435e-05      2.76492     -75.7627 
2.97312e-05      4.89653     -72.8973 
-1.97298e-05      8.38637     -71.6515 
-1.96900e-05      5.30554     -95.6246 
-1.97853e-05     0.880000     -90.0000 
9.92166e-06      2.74634     -102.619 
-1.96902e-05      6.98627     -82.1019 
-2.93023e-05      6.34476     -95.0636 
-9.85490e-06      4.59304     -70.1448 
-1.95673e-05      4.08333     -60.6728 
1.95243e-05      9.15817     -75.8424 
9.78856e-06      8.17508     -79.5698 
9.73187e-06      8.94606     -62.2892 
9.70113e-06      4.88999     -66.3706 
-9.69136e-06      6.14101     -76.0543 
9.66575e-06      4.80666     -71.5651 
