! Center RA: 22 02 43.29137,  Dec: +42 16 39.97987 (2000.0)
! Tentative model.
! Flux (Jy) Radius (mas)  Theta (deg)  Major FWHM (mas)  Axial ratio   Phi (deg) T \
! Freq (Hz)     SpecIndex
 0.0542046     0.126491     -161.565 
 0.0150813    0.0894427     -153.435 
0.00626800     0.322490     -172.875 
 0.0125518    0.0800000      180.000 
0.00877624     0.368782     -167.471 
0.00805513    0.0565685     -135.000 
0.00469878     0.362215     -173.660 
0.00737671     0.407922     -168.690 
0.00509999    0.0400000     -90.0000 
0.000696059     0.401995     -174.289 
0.00446151     0.282843     -171.870 
0.00152588     0.441814     -174.806 
0.00158626     0.447214     -169.695 
0.00241035     0.481664     -175.236 
0.00221580    0.0565685     -45.0000 
0.00165668     0.243310     -170.538 
0.00239896      1.44056     -178.409 
0.000709884      1.44222     -176.820 
0.00233401     0.113137     -45.0000 
-0.00239296     0.282843     -135.000 
0.000783719      2.36305     -177.089 
0.000197736      1.48216     -176.906 
0.000490189     0.521536     -175.601 
-0.00121110     0.288444      33.6901 
-0.00162068     0.322490      29.7449 
0.000517526      2.44524     -176.248 
-0.000560710      7.61861     -167.569 
0.000698524      4.66236     -170.618 
0.00155654      8.20010      179.721 
-0.00224418     0.312410     -140.194 
0.000991519     0.520000      180.000 
-0.000282351      5.42601     -156.080 
-0.000699030      8.20731      169.895 
-0.000313192      5.40992     -156.468 
0.000464238      2.38160     -172.278 
-0.000342069      4.73236     -157.119 
0.000598202      8.91498      155.620 
0.00110816      2.04353     -176.634 
-0.00125179      7.53806      166.185 
-0.000665690      3.57077      170.327 
0.000184946      2.42685     -171.469 
0.000518066      5.20200      167.567 
0.000879368      2.52602     -169.046 
0.000366892      3.12103     -178.531 
0.000390936      4.97835     -171.219 
0.000433740      8.80954      157.860 
-0.000877039      7.64199     -173.991 
0.000726222     0.560000      180.000 
0.000656296      6.76473      151.768 
0.000475366      1.93494     -172.875 
-0.000364327      7.57955     -167.504 
0.000653649      8.82922      161.237 
0.000585043      5.19507     -170.248 
-0.000498518     0.200000      36.8699 
0.000459929      5.87946     -166.626 
-0.000498314      8.73366      167.300 
0.000311808      8.62452      154.742 
-0.000650607      4.52354     -158.199 
-0.000504338      6.94262      175.373 
-0.000184470      5.51971     -159.201 
0.00174473      6.39562     -158.731 
0.000384314      4.47518     -172.811 
0.000534652      4.40254      162.553 
0.00107533      3.59221     -172.321 
0.000724849      8.02436      159.578 
0.000506194      7.69415      171.027 
0.000525337      8.43810      160.620 
0.000178238      2.08691     -167.829 
-0.000548652      2.25175      167.692 
0.000272169      5.20200     -169.813 
-0.000135877      8.78690      169.509 
-0.000581620      3.61021      170.433 
-0.00120674      1.13772      169.875 
0.00153527     0.203961     -11.3099 
0.000308063      9.51781      159.585 
0.00106692      1.40057     -178.363 
-0.000953109      6.36252     -161.679 
-0.000369765      9.10174      169.875 
-0.000246175      7.76216     -166.895 
0.000464733      3.16101     -178.550 
0.000536919      4.86391     -168.136 
0.000552279      3.69670     -144.246 
-0.000195424      7.31399      147.961 
-6.81411e-05      9.09479      170.123 
-0.000354800      4.57559     -157.920 
0.000601676      6.11202     -165.600 
0.000532089      6.68299     -178.285 
0.000260591      2.32034     -179.012 
0.000424738      5.17177      167.039 
0.000583109      8.47925      153.677 
0.000357236      4.16557      168.366 
-0.000952528     0.291204      164.055 
0.000183500      4.17555     -175.054 
9.71260e-05      4.69553     -166.201 
0.000238616      8.92323      163.596 
9.30353e-05      4.33368     -170.972 
0.000267893      5.78342      155.917 
-0.000127748      4.76202      169.351 
-0.000775237      7.10921      160.953 
0.000654109      5.11641      154.036 
-0.00107732      3.89974      169.958 
-0.000197336      5.89956      175.333 
-0.000572694      5.15566      170.172 
0.000341690      8.98176      162.372 
6.33256e-05      2.07885     -168.906 
-0.00124549      8.15814      152.555 
-6.22388e-05      8.30778      169.177 
-0.000300549      5.89644      175.721 
0.000142127      2.64000      180.000 
-0.000135751      5.28757     -161.017 
-0.000845941      6.98249      175.400 
0.000246863      3.96081     -146.952 
-0.000717538      7.44527      155.225 
8.59637e-05      2.57309     -168.341 
5.82760e-05      8.85664      154.592 
3.04969e-05      6.80000      151.928 
0.000328927      2.03961     -168.690 
-0.000581668      8.42890      163.457 
0.000436116      4.65669     -166.083 
-3.02972e-05      5.53404     -158.814 
-0.000811582      4.76957      168.879 
0.000570749      4.21900     -174.560 
0.000230406      5.96201     -168.389 
0.000666463      6.92046     -160.413 
0.000111945      1.35823     -166.373 
-0.000194755      8.16794      169.846 
0.000254391      3.72773     -176.309 
0.000300432      8.87856      155.513 
-0.000940891     0.878180     -149.931 
-0.000483460      7.28011      147.794 
-0.000579062     0.644981     -150.255 
0.000804153      7.27879      149.630 
-0.000668180     0.144222      33.6901 
-0.000286542      8.33969      169.499 
0.000274488      4.96935      157.770 
0.000299323      4.48036     -172.304 
-2.84714e-05      5.57136     -158.962 
8.25771e-05      7.13762      153.722 
0.000961062      4.34658      173.660 
0.000750403      2.44131      178.122 
0.000100764      1.89526     -172.725 
-0.000326097      3.71117      172.569 
0.000216391      4.37959     -170.538 
-0.000440523      7.19555      171.690 
0.000177395      6.64193     -178.620 
0.000194706      8.24155     -178.888 
0.000129189      1.88680      175.135 
-0.000101774      5.60871     -159.109 
0.000270798     0.888144     -172.235 
0.000282574      7.36174     -178.755 
0.000101344      3.11127     -171.870 
-0.000335900      6.31202     -161.910 
-0.000332978      6.71452      174.188 
-0.000327219      7.13269      167.367 
0.000197023      6.79412     -169.484 
0.000151247      5.62409     -174.695 
-0.000316407      3.81093     -159.092 
0.000734797      3.72022     -163.124 
-0.000325087      7.23547      161.966 
-0.00126873      2.70703     -161.030 
0.000232500      3.56090     -178.713 
0.000641978      6.20116     -178.891 
0.000163644      7.15598      154.151 
-0.000574955      5.72713     -155.225 
0.000120181     0.240000      0.00000 
0.000190460      9.11939      165.781 
0.000499170      8.85745      166.152 
-4.97844e-05      8.68590      167.500 
0.000732220      1.39714     -166.759 
0.000269935      6.74590      152.067 
0.000140359      6.87826      158.508 
0.000408789      5.76722      156.280 
-0.000966043     0.357771     -26.5651 
-0.000185726      5.35298      155.733 
0.000430225      7.80974      173.530 
-0.000579691      8.36689      156.622 
0.000359263      6.82513     -168.163 
-0.000290191      5.56230      167.963 
0.000437128      8.93461      163.350 
7.26333e-05      8.12236      154.318 
-0.000196649      6.47580      173.972 
-0.000189515      7.06269      170.218 
0.000390133      6.29107     -172.694 
-0.000269551      7.55831     -174.229 
0.000236050      4.11845      168.799 
0.000519049      3.32096     -170.991 
-0.000161960      7.53191     -167.735 
-0.000197476      8.16098      170.122 
-0.000230035      8.38217     -165.632 
-0.000511776      7.46726      159.624 
-6.86794e-05      5.64610     -159.254 
-0.000169663      5.93943      175.365 
-0.000148396      5.01007      160.408 
-0.000528236      6.24871      161.333 
0.000606827      7.08531      154.592 
0.000570000      6.58337      154.058 
0.000164224      8.14214     -175.774 
0.000195477      1.84694      175.030 
0.000688586      5.58426     -174.657 
-0.000128906      3.13177     -151.798 
2.32192e-05      9.53184      159.360 
0.000517904      8.08633      154.195 
4.48945e-05      3.00027      179.236 
-2.28798e-05      7.59811     -174.259 
0.000359195      5.93943      152.745 
0.000274187      6.94665      165.324 
0.000147085      3.66431     -143.881 
-9.93810e-05      5.40370      177.879 
0.000293157      8.01049      159.846 
0.000306605      6.12209     -165.237 
-0.000192054      4.48589      171.798 
4.41290e-05      2.88250     -177.614 
0.000273575      7.32273      178.435 
0.000706596      5.10325      158.866 
-0.000282036      5.69772     -159.020 
-0.000211030      2.26062      166.701 
0.000590667      2.73905     -151.189 
0.000353247      5.62750     -166.853 
0.000152360      6.78599      168.094 
0.000609503      6.83345     -169.545 
-0.000228732      1.24579      174.472 
0.000172243      8.58836      154.628 
0.000351361      6.26712      165.964 
-0.000106469      5.40592     -155.521 
0.000330817      2.56531     -169.216 
0.000602915      8.90627      160.589 
0.000645516     0.855102     -169.216 
-9.90940e-05      2.51873     -159.550 
0.000277619      6.89162     -176.673 
0.000227538      9.42787      157.025 
-0.000658686      5.44000      180.000 
4.07311e-05      5.58856     -166.759 
0.000508621      9.08062      165.719 
0.000272635      2.96027      179.226 
-0.000245544      8.69464      167.242 
2.09794e-05      8.89521      155.279 
-0.000646049      5.36954      155.344 
0.000147790      3.96989     -175.956 
0.000295379      2.88111     -178.409 
0.000363595      5.69196      151.454 
0.000291332      6.91549      158.629 
-3.74629e-05      7.57100     -167.800 
-9.84334e-05      6.52196      178.594 
0.000138091      8.41380      160.273 
0.000164191      8.93156      155.386 
-0.000144681      5.23679     -161.288 
0.000342098      4.41905     -170.623 
-0.000622133      8.34161      175.875 
2.02228e-05      8.89629      163.276 
0.000560660      4.48071     -178.977 
7.58654e-05      6.39062      159.864 
-7.19209e-05      5.17548      175.567 
0.000350705      6.91827      164.919 
0.000108828      6.93397     -160.102 
0.000199165      5.50113     -165.256 
0.000309579      2.04783     -167.593 
-0.000368202      7.75319     -167.183 
-0.000639614      4.83256     -173.346 
0.000192742      5.92284     -168.311 
-0.000160750      4.00320      177.709 
0.000467289      9.31279      156.187 
-0.000432825      3.11307     -152.447 
0.000348093      3.37520     -148.570 
9.57877e-05      9.30772      157.513 
-8.82546e-05      6.27401     -161.796 
7.34050e-05      5.16480     -163.811 
-0.000313758     0.393954      156.038 
-0.000463100      4.44630      171.724 
4.91845e-05      7.12000      154.011 
0.000325455      8.12778      173.784 
0.000220451      5.00640      172.194 
1.88301e-05      5.14198      166.504 
-0.000547924      3.15087     -159.955 
0.000210566      7.24431      149.470 
1.87677e-05      8.94365      162.294 
5.37211e-05      8.53351      154.156 
0.000446026      3.51204     -142.869 
0.000448354      3.13356      165.964 
-0.000281830      6.11110      162.870 
0.000266481      6.60194     -178.611 
-0.000294020      2.87221      167.125 
-0.000193462      6.48012      173.621 
8.46496e-05      4.28000      180.000 
0.000463940      5.15147      166.072 
-0.000361270      8.20624      177.765 
-5.37475e-05      5.19076      151.460 
-0.000523845      8.12857      169.796 
0.000731924      6.07289     -160.372 
-0.000303565      4.00180      178.282 
0.000355535      4.81415      171.399 
0.000102972      7.68010      168.280 
-0.000172359      6.48197      178.586 
0.000129369      4.90697      150.719 
0.000120762      5.46245     -165.150 
0.000155343      8.91785      161.971 
-0.000182798      9.18608      160.145 
-0.000191720      7.47840     -171.697 
-0.000126517      5.60985      167.648 
-0.000348456      8.37234     -165.897 
-0.000361691      8.07257      165.069 
1.78884e-05      5.34086      163.465 
0.000596104      1.36059     -178.315 
0.000433213      3.28146      170.882 
-0.000168555      2.32998      168.111 
-0.000334830      3.82539     -158.532 
0.000102336      3.99440     -147.265 
-5.13917e-05      5.07244      161.136 
0.000492712      3.36048     -171.098 
0.000159093      8.14518     -175.493 
-3.33151e-05      6.75432      174.222 
-0.000257844      7.40897      155.095 
-0.000270800      6.50243     -162.457 
0.000320130      7.87299      154.737 
-4.98841e-05      8.37902      169.548 
-9.94739e-05      8.14125     -170.954 
-0.000225348      7.16190      171.327 
0.000225455      4.90306     -168.232 
-0.000298459      6.63759     -164.624 
-0.000326039      3.02020     -168.541 
-0.000345571      5.26437      150.903 
0.000128567      2.70407     -150.781 
0.000405020      5.20323     -163.934 
4.65311e-05      6.78599     -168.094 
-0.000107287      7.77133      166.608 
-8.15635e-05      8.41760      163.718 
0.000446210      4.84991     -155.126 
-0.000223317      4.85963     -159.775 
0.000257788      5.56705     -177.117 
-3.25432e-05      5.38858     -161.834 
0.000397829      7.76999      173.497 
0.000319167      7.97295      159.747 
3.31974e-05      3.75851     -163.301 
0.000212543      4.54401     -163.639 
-7.50594e-05      6.91757      174.026 
-0.000272079      6.18553     -161.917 
0.000148679      4.91935      153.435 
0.000138297      4.16481     -163.828 
4.78931e-05      9.12710      155.120 
-0.000137842      5.09761      161.707 
7.82352e-05      7.55661      150.857 
-0.000244788      5.76278      166.350 
0.000189532      2.44295      177.184 
0.000261963     0.561427      175.914 
-1.62397e-05     0.590593     -151.699 
-1.61189e-05      6.87779      173.991 
3.17350e-05      5.68971      158.124 
1.61193e-05      3.83521     -163.644 
0.000118784      7.21787     -165.887 
0.000164709      3.41901     -173.956 
0.000370473      3.87360     -163.811 
-0.000105075      1.41421      171.870 
-0.000227888      5.08378     -165.417 
-0.000375320      7.42859      155.505 
0.000113086      7.71927      168.341 
3.13349e-05      8.49753      154.038 
-0.000383792      8.01648     -171.102 
0.000258405      2.57992     -150.255 
-7.16330e-05      7.23304      168.193 
-5.68964e-05      3.74593      173.254 
5.61036e-05      6.11582     -170.969 
0.000238217      9.10964      166.025 
1.55933e-05      9.00791      162.692 
-0.000229349      1.40911      173.480 
0.000128263      6.74685      168.024 
-5.98899e-05      7.53286      176.651 
-4.53602e-05      9.12465      159.738 
-0.000256588      8.37921      163.641 
-0.000100863      4.54964     -147.567 
0.000349475      5.14058      159.027 
-0.000158881      5.81116      166.059 
0.000130037      8.84217      155.406 
-0.000185341      8.69768      163.982 
4.19594e-05      6.35308      159.740 
9.77491e-05      5.24137     -169.891 
-0.000265550      7.04920      177.073 
0.000218010      5.65261      157.973 
0.000182438      9.09083      155.014 
0.000129775      4.32000      180.000 
-0.000134841      7.42116      175.672 
-5.78537e-05      5.08063     -158.282 
-0.000219888      7.45343      159.912 
-1.50810e-05      5.13887      175.088 
4.41409e-05      7.88528     -169.773 
-0.000326187      3.45138      175.347 
0.000187387      7.32175     -178.748 
-0.000178537      7.48011     -179.694 
0.000337175      6.24115     -178.898 
1.47652e-05      3.16228     -177.825 
0.000196742      7.59157      151.004 
-0.000374702      9.16218      159.825 
0.000100709      5.08047      153.838 
-0.000142084      5.35373      173.565 
-2.84457e-05      5.42660     -161.966 
4.21771e-05      8.74638      171.055 
0.000260167      7.92465     -169.824 
-0.000253780      6.19806      161.565 
0.000144648     0.120000      180.000 
0.000285631      4.26483     -156.801 
0.000118047      6.15532     -171.027 
-0.000211308      4.01138      170.819 
-8.53094e-05      8.41123      169.866 
0.000117303      8.75269      170.796 
6.56393e-05      7.82897      168.805 
0.000146086      7.80041      179.412 
0.000290033      6.39362      169.182 
-0.000269223      1.46697      168.996 
1.41754e-05      2.47257     -170.690 
0.000156233      8.14842     -175.213 
-0.000149921      5.12328      162.272 
0.000186608      2.92246     -177.647 
1.40382e-05      7.95920      160.017 
0.000126521      6.98536      165.407 
-0.000184933      6.40050      179.284 
0.000148006      2.51873     -169.939 
0.000109352      6.25140     -172.648 
-0.000100710     0.256125     -128.660 
-0.000244072      5.81653     -155.197 
1.38124e-05      8.16755      173.815 
-0.000168628      7.53530      176.348 
0.000146538      8.32509      164.962 
0.000160802      7.92162      159.918 
0.000145367      8.55224      154.514 
-0.000145190      7.56328      156.961 
0.000155243      8.40038      160.530 
-8.48754e-05      6.49233      176.468 
0.000169259      7.72787      153.568 
-0.000128418      9.27586      165.005 
1.34284e-05      5.93107     -167.932 
8.53358e-05      4.83074     -154.496 
-0.000178188      3.92122     -161.565 
0.000123800      7.25667     -165.964 
8.42828e-05      5.36656     -169.695 
0.000178290      5.89196     -167.851 
-8.28799e-05      5.43912     -161.565 
-2.59441e-05      7.34792      148.127 
0.000211985      8.78590      171.095 
4.65709e-05      3.56202     -178.069 
-0.000178214      6.72726      170.762 
-0.000107410      5.84999      166.154 
-0.000107306      4.51593     -147.295 
0.000176818      8.90555      162.216 
-8.52743e-05      5.06597     -158.703 
0.000106400      5.47284     -164.745 
4.70810e-05      4.45798     -174.852 
-8.23346e-05      6.87372      174.323 
0.000129206      9.38731      162.646 
-0.000109756      6.62420     -172.017 
-5.01941e-05      3.96182      178.264 
9.38035e-05      8.03771      155.603 
0.000155795      3.35452     -149.153 
-8.31556e-05      8.76374      164.378 
-5.94081e-05      7.51851     -174.198 
-0.000176185      6.18967     -169.198 
7.12793e-05      3.54739     -172.875 
2.55512e-05      6.89023      164.511 
-0.000128673      3.56180     -147.381 
5.85760e-05      4.87212      150.489 
2.52757e-05      8.04965      163.546 
-0.000129902      9.24770      164.701 
-0.000139047      7.54135     -172.687 
-7.04256e-05      6.01345      172.355 
5.88204e-05      3.89173      167.535 
-9.27022e-05      1.13137      171.870 
-0.000140331     0.226274     -135.000 
0.000115830      6.86254      164.100 
0.000183137      8.01129      163.465 
-6.97553e-05      7.38192      148.291 
-0.000115080      5.12250     -165.530 
0.000114021      6.19484     -171.085 
4.65690e-05      4.30256     -174.130 
-3.53662e-05      6.37520     -161.338 
9.11007e-05      4.68615     -177.064 
0.000182107      5.12250      165.530 
-5.71468e-05      6.02462      165.779 
6.83888e-05      7.73025      173.463 
1.21329e-05      4.97240      171.674 
0.000113458      4.51876      169.287 
5.69445e-05      2.08346     -176.698 
-0.000101810      3.96081      178.843 
8.98469e-05      7.79764      168.460 
-0.000135317      5.74247      153.970 
0.000123753      8.15186     -174.933 
-4.57059e-05      6.69424      165.466 
0.000112137      7.39264     -165.588 
4.55278e-05      8.06791      153.816 
3.48379e-05      7.54135      150.444 
3.41191e-05      2.45308     -155.943 
4.53025e-05      4.50564     -163.496 
1.17189e-05      8.13093      156.209 
4.52776e-05      4.96677      172.131 
-8.88040e-05      9.23723      164.941 
3.38810e-05      2.69429      161.834 
4.44672e-05      7.26592      151.742 
-4.43236e-05      4.56946      166.329 
6.71419e-05      5.50156     -166.974 
9.99063e-05      3.17238      166.139 
7.76960e-05      8.13221      173.504 
-1.15997e-05      7.16313      167.749 
3.36494e-05      9.29249      157.741 
7.76692e-05      7.10437     -164.320 
-4.45799e-05      7.46726     -163.507 
-9.97243e-05      4.22147     -167.412 
4.49186e-05      6.36201      168.761 
-2.24625e-05      3.75084      172.648 
8.83096e-05      6.38122     -159.066 
-3.36270e-05      5.62310      171.409 
2.24110e-05      6.94078      153.287 
3.35801e-05      3.77719     -155.606 
1.14379e-05      4.25883     -174.611 
-2.21667e-05      5.52319      167.876 
2.19779e-05      5.67563     -166.551 
-5.51420e-05      8.17274      162.629 
-5.47181e-05      7.12404      167.681 
6.56343e-05     0.521536      175.601 
5.42919e-05      6.87279     -169.606 
-5.45214e-05      6.62987     -171.674 
-3.29155e-05      8.11478      170.352 
4.36373e-05      7.09625     -176.121 
-3.26378e-05      4.69553     -156.930 
4.37625e-05      7.97887     -167.845 
3.26689e-05      6.55243      161.123 
4.37508e-05      7.57617      150.593 
-3.27365e-05      5.05157     -159.125 
3.26088e-05      4.94223     -168.326 
-2.18495e-05      2.92246     -149.574 
-3.24720e-05      7.16313     -167.749 
-3.23908e-05      5.31880      150.736 
-2.14800e-05     0.329848      165.964 
2.14559e-05      4.55544     -163.156 
1.08322e-05      4.01995     -148.841 
1.08088e-05      8.16755      156.322 
3.20314e-05      3.34114     -148.213 
3.20595e-05      3.86264     -164.381 
-2.14612e-05      4.87212     -150.489 
2.13681e-05      6.56110     -178.952 
-1.07726e-05      2.69072      174.883 
-3.20120e-05      4.65188      154.537 
1.07157e-05      3.93080      167.661 
-1.07309e-05      8.21092      162.713 
2.12363e-05      7.85407      154.348 
1.06923e-05      3.10483     -165.069 
-1.06373e-05      6.44112      178.933 
-1.05858e-05      4.93737     -153.020 
1.05740e-05      4.93737      153.020 
1.05516e-05      4.65927      164.055 
