! Center RA: 16 42 58.80997,  Dec: +39 48 36.99402 (2000.0)
! Tentative model.
! Flux (Jy) Radius (mas)  Theta (deg)  Major FWHM (mas)  Axial ratio   Phi (deg) T \
! Freq (Hz)     SpecIndex
-0.0277972    0.0400000     -90.0000 
-0.00464098    0.0800000     -90.0000 
-0.00439715      0.00000      0.00000 
-0.0128857     0.126491     -71.5651 
-0.0173697    0.0400000      90.0000 
0.00820855      1.61988     -110.225 
-0.00539874     0.120000     -90.0000 
0.00129977     0.594643     -109.654 
0.00222838     0.582409     -105.945 
0.000561310      2.00360     -86.5664 
0.00166509      1.58240     -110.726 
-0.00254153     0.164924     -75.9638 
0.000790713      1.63414     -111.541 
0.00118344      1.60050     -88.5679 
0.000304278      2.04353     -86.6335 
0.000509667      2.00639     -85.4261 
0.000868946      2.38160     -97.7218 
0.000425106      2.04157     -87.7543 
0.000554438      2.24036     -88.9770 
0.000659864      1.56000     -90.0000 
0.000184933      2.32138     -88.0251 
0.000351872      2.56500     -86.4237 
-0.000518109    0.0894427      116.565 
-0.000540960      7.42342     -77.2368 
-0.00109734      5.48715     -87.0750 
-0.00140985      7.95719     -66.9149 
-0.000642541      7.47133     -77.0054 
-0.000669630      4.00520     -98.6156 
-0.000488181      4.66236     -99.3815 
-0.000244190      8.27565     -73.1416 
0.000534596      2.56281     -87.3162 
0.000117398      2.40832     -94.7636 
0.000388434      2.36136     -88.0585 
-0.000581886      8.28734     -72.8769 
0.000813109      2.26274     -98.1301 
0.000816806      2.00998     -84.2894 
0.000335527     0.557136     -111.038 
-0.000687676      8.57578     -79.7908 
0.000568331      4.81365     -64.9256 
-0.000605134      6.18230     -79.5625 
-0.000517632      5.01199     -81.7406 
3.84844e-05      2.36305     -87.0892 
-0.00115006      6.42445     -95.0006 
0.00116658      3.08104     -88.5121 
-0.00122682      2.93394     -78.9965 
0.000471796      2.57992     -97.1250 
-0.000250824      7.12550     -69.6322 
0.00157793     0.407922     -101.310 
-0.000528299     0.855102     -100.784 
-0.000787224      7.81895     -80.8750 
-0.000162088      5.01023     -86.3381 
-0.000531270      7.14927     -70.0443 
0.000595771      8.28734     -81.6743 
-0.000472592      7.06269     -80.2176 
-0.000664620      5.51971     -69.2010 
3.36843e-05      2.04039     -88.8767 
0.000585566      4.59373     -73.3008 
-0.00101947      6.39250     -81.3629 
0.000487462      6.85414     -86.3194 
-0.000212561      6.10220     -85.1116 
0.000400551      5.71160     -96.0300 
-0.000223620      5.12062     -89.1048 
-0.000374791      4.84066     -79.5258 
-0.000367127      4.01138     -99.1805 
0.000830881     0.252982     -18.4349 
-0.000733056      4.70183     -99.3021 
0.000194209      2.38730     -98.6732 
-0.000657972      10.2362     -65.0372 
-0.000346375      5.59786     -76.3609 
6.11775e-05      2.04000     -90.0000 
-0.000531699      1.67905     -102.381 
-0.000547224      6.04305     -83.1572 
-0.000180390      6.71547     -79.3594 
-0.000332194      5.24107     -77.6609 
-8.73768e-05    0.0800000      90.0000 
-0.000345896      3.75851     -73.3008 
0.000126876      4.23717     -82.4054 
0.000188848     0.304631     -23.1986 
-5.80955e-05      7.09670     -72.2799 
0.000126131      4.31351     -71.0610 
5.66133e-05      2.04039     -91.1233 
-0.000302699      5.24854     -79.4608 
0.000643282      6.20967     -68.0615 
-0.000257382      4.96790     -86.7690 
0.000797385      4.64017     -89.5061 
-0.000270684      7.64010     -71.3753 
-2.84428e-05      7.13571     -70.3462 
-0.000370788      4.20305     -87.8184 
-0.000813771      6.98249     -71.9802 
0.000799509      4.08333     -60.6728 
-0.000927679      4.00899     -65.2249 
-0.000542493    0.0565685      45.0000 
-0.000225602      6.01771     -77.7190 
-0.000474614      8.24912     -72.7951 
-0.000118098      7.12281     -72.6844 
0.000221349      1.40911     -83.4802 
-2.70907e-05      5.54963     -76.6649 
0.000142290      2.20036     -88.9584 
-0.000344497     0.815843     -101.310 
5.29508e-05      2.04157     -92.2457 
-0.000213127      1.64000     -102.680 
-0.000121549      5.96335     -88.0780 
-0.000202793      5.12016     -89.5524 
0.000555995      9.60108     -71.0366 
-0.000182847      4.66905     -80.1342 
-0.000264033      6.10574     -84.7376 
0.000262547      6.80106     -91.0110 
-0.000208064      9.46792     -65.2756 
0.000551553     0.544059     -107.103 
-0.000160109      5.55899     -76.2637 
0.000228510      2.33238     -112.166 
-0.000457105      6.45935     -64.7045 
0.00100211      8.03841     -69.3105 
9.27080e-05      7.76999     -83.4969 
0.000272901      2.00360     -93.4336 
-0.000401071      7.67521     -77.0501 
-0.000450777      7.81271     -81.1646 
-2.50248e-05      7.94400     -72.1124 
0.000396157      7.76556     -83.7902 
0.000125940      2.61962     -97.0165 
0.000323292      9.46184     -72.0246 
-0.000387484      7.13952     -69.3312 
9.34014e-05      9.08432     -72.8416 
0.000225992      4.19142     -66.3706 
-0.000665683      5.60286     -80.1342 
-0.000414447      5.97930     -61.2060 
-0.000246551      6.34703     -81.6656 
-0.000341350      3.79684     -73.4742 
6.42819e-05      1.92042     -91.1935 
-8.99353e-05     0.960833     -87.6141 
8.85235e-05      1.77539     -112.521 
-0.000175979      6.33896     -77.9810 
-0.000267658      8.39905     -71.3925 
-0.000192177      9.74335     -66.2763 
0.000170283      2.39366     -99.6197 
-0.000852544      1.63169     -101.310 
0.000429202      9.07445     -82.6557 
0.000224463      2.36034     -89.0290 
-8.80503e-05      5.59142     -70.7873 
-0.000203944      7.24872     -79.1861 
-0.000560701      5.48234     -91.6724 
2.32623e-05      4.64362     -72.9698 
-0.000295743      8.56878     -80.0540 
0.000517850      7.38474     -67.0459 
-0.000166606      7.96994     -72.4744 
0.000397483      2.20145     -65.2976 
-0.000146637      7.39232     -69.4077 
0.000373015      6.32923     -67.3244 
-0.000444581     0.815843     -78.6901 
-0.000442048      4.83355     -100.008 
-0.000528622      6.61695     -76.7198 
-0.000876955     0.538145     -131.987 
-0.000114110      1.88043     -66.1613 
-0.000552930      8.14312     -79.2420 
0.000331570      3.28390     -87.2073 
-0.00101552     0.824621     -104.036 
0.000551158     0.200000      180.000 
4.31777e-05      4.74384     -72.3290 
-0.000162439      8.76584     -80.2798 
0.000409021      8.78954     -75.7740 
0.000894145      6.81199     -82.9167 
-0.000138641      9.69066     -66.3977 
0.000306962      9.79437     -69.9369 
-0.000213212      5.00640     -82.1936 
-0.000140835      6.02634     -77.3474 
0.000220073      1.36528     -84.9575 
-0.000175594      5.89101     -93.5035 
-0.000116339      6.12470     -87.7543 
-0.000412834     0.620967     -75.0686 
-0.000479516      5.24137     -79.8907 
-0.000688081      1.07703     -68.1986 
0.000224540      4.75613     -71.8698 
-0.000376218      7.32393     -88.1221 
-0.000154139      2.60768     -69.3411 
0.000344025      9.09620     -72.6009 
0.000369546      4.00719     -93.4336 
-0.000373554      8.36612     -69.5722 
-0.000255152      5.72503     -92.4026 
0.000344183      6.85169     -86.6532 
-0.000294135      6.00213     -88.4725 
0.000127311      9.00311     -84.3907 
0.000236186      4.13879     -66.6560 
-0.000638690      4.09429     -104.715 
0.000676315      2.70732     -77.1957 
0.000284873      1.31027     -77.6609 
0.000229806      8.24204     -81.9092 
0.000241506      4.17555     -66.8735 
0.000447554      9.45262     -69.9548 
-0.000475816     0.572713     -65.2249 
-0.000380672      7.20755     -81.0604 
0.000294328      1.56869     -109.359 
-8.84643e-05      1.34164     -100.305 
-5.77774e-05      5.55367     -70.6515 
0.000202291      8.11221     -82.3493 
-0.000307812      4.66236     -80.6185 
-0.000349038      9.72732     -66.4920 
-0.000108782      6.22254     -81.8699 
-7.34454e-05      7.44387     -88.1524 
-0.000260279      6.34741     -77.6278 
-0.000504298      7.00560     -87.7094 
-0.000137594      5.81997     -70.3197 
-0.000220765      3.93954     -77.0926 
0.000387874      6.74329     -94.7636 
0.000150740      1.82779     -113.199 
-0.000435642      5.38858     -71.8340 
0.000201240      1.48862     -120.700 
-1.88266e-05      6.29768     -64.4115 
0.000114633      2.34776     -113.070 
-0.000196807      7.67802     -71.4707 
0.000348120      9.77065     -69.6361 
-0.000312709      6.28051     -64.7406 
3.60834e-05      1.36528     -121.827 
-0.000104575      8.77268     -80.0223 
-0.000145709      6.75479     -79.4220 
-3.48419e-05      3.86761     -79.2711 
0.000229702      2.40067     -100.561 
-0.000157914      7.41587     -69.8057 
0.000272501      2.32034     -89.0122 
1.80448e-05      6.22472     -67.7200 
-0.000123107      4.20476     -87.2737 
0.000117927      7.07277     -84.4829 
-0.000461936      9.15371     -74.0202 
0.000158361      9.07965     -82.4054 
-0.000254246      6.03523     -76.9769 
-0.000131786      6.54462     -67.3532 
0.000185850      6.90275     -94.6534 
0.000142766      1.14612     -119.249 
-6.61425e-05     0.963328     -85.2364 
-0.000369070      2.69785     -105.479 
-0.000188570      5.56705     -70.2631 
8.42814e-05      4.45601     -65.0452 
-0.000126969      6.10953     -84.3641 
-0.000129214      5.32361     -82.6614 
-0.000552270      2.57029     -69.0265 
-0.000385178      7.16011     -89.6799 
-0.000308541      6.03059     -98.7751 
0.000201669      8.95545     -82.5576 
3.34097e-05      1.16619     -120.964 
-0.000560704      8.82623     -79.5558 
-4.81249e-05      9.28913     -65.3110 
0.000353993      3.86264     -105.619 
-7.84294e-05      5.20200     -102.433 
0.000130643      1.31939     -75.9638 
0.000203915      1.92167     -92.3859 
-0.000312016      5.73550     -67.0113 
0.000382699      6.80247     -74.6562 
0.000170519      1.65747     -81.6744 
-0.000320584      9.32549     -65.4137 
0.000224700      4.46730     -73.3499 
0.000161855      3.95171     -68.6294 
-0.000468891      9.91104     -64.1589 
-0.000246042      5.87251     -99.0132 
-0.000209163      7.44527     -87.8447 
-0.000188387      7.20944     -79.1265 
-0.000313144      9.14462     -67.3609 
-0.000171426      5.89359     -93.8917 
0.000107696      4.43928     -65.5133 
0.000224804      9.62405     -63.3285 
-0.000141722      3.90487     -83.5302 
0.000142244      1.28062     -88.2101 
0.000491358     0.824621     -129.094 
-0.000236903      6.22832     -81.5056 
0.000198862      4.42610     -83.7742 
-0.000349226      7.97295     -66.6504 
0.000316222      3.64000     -90.0000 
0.000256620      4.79416     -72.0186 
-0.000120310      5.42852     -101.476 
9.12635e-05      7.86608     -85.3331 
0.000259852      5.71594     -96.4287 
-0.000253744      3.60799     -86.1859 
5.75244e-05      1.28250     -86.4237 
-4.57673e-05      4.02492     -100.305 
-0.000158014      1.84391     -65.6589 
-0.000338413      4.21046     -104.300 
-5.51019e-05      6.12327     -88.1283 
0.000143326      9.20678     -75.6619 
0.000259614      7.34792     -66.9243 
0.000145632      1.35351     -124.160 
-3.02067e-05      4.20476     -78.4763 
-0.000177326      8.41760     -69.4121 
0.000200432      7.07672     -84.1605 
-7.99603e-05      7.25634     -78.8759 
-0.000149350      4.88737     -100.850 
-0.000326480      6.42109     -94.6451 
0.000131430      4.88016     -67.8498 
0.000140833      6.81175     -86.6335 
2.93984e-05      2.58519     -98.0047 
-4.33843e-05      5.52710     -87.0962 
0.000146807      2.64515     -110.353 
-1.51207e-05      6.21456     -79.9920 
0.000154271      3.82539     -68.5323 
-0.000112409      2.80257     -87.5460 
-0.000167734      6.57608     -80.1939 
6.95789e-05      9.00711     -84.1375 
-1.49568e-05      3.95434     -82.4437 
-1.48927e-05      4.84809     -79.0609 
-9.74336e-05     0.160000     -90.0000 
-0.000181227      2.80457     -86.7295 
0.000191427      9.67876     -64.2821 
-5.72456e-05      5.42129     -84.9204 
-4.23620e-05      7.11640     -68.9162 
8.28410e-05      8.31433     -76.3649 
-0.000178364      4.10463     -74.7449 
-0.000180183      3.98557     -100.408 
-0.000129184      5.10654     -84.1554 
0.000166555      7.99530     -74.9209 
-4.10986e-05      6.15038     -79.1285 
-9.20030e-05      6.62891     -72.4397 
-0.000363218      3.90958     -82.9477 
-0.000286726      6.26355     -65.0715 
0.000204178     0.533667     -102.995 
-0.000106978      3.93080     -77.6609 
0.000175635      7.56941     -81.1848 
0.000165536      4.04178     -91.7014 
-2.82511e-05      6.87092     -67.7650 
-0.000107624      7.86811     -71.0124 
0.000212713      3.32385     -87.2409 
-0.000134655      8.27720     -69.6384 
-3.99340e-05     0.967471     -82.8750 
-6.30121e-05      7.02328     -80.1621 
0.000136221      6.76106     -91.0170 
-0.000137000      4.25206     -78.0558 
0.000147961      3.96989     -94.0445 
-0.000150781      7.18688     -70.1531 
-1.40838e-05      8.31471     -69.7343 
0.000138115      7.86943     -85.0429 
-1.40352e-05      4.96580     -87.2298 
-0.000260630      4.96000     -90.0000 
-2.77147e-05      6.35043     -63.4349 
-0.000163166      8.59023     -85.1920 
-0.000121407      6.79412     -79.4840 
-0.000107000      7.85519     -71.2883 
-0.000135599      5.42070     -101.061 
5.24652e-05      8.79682     -69.5049 
3.91005e-05      4.12311     -59.7036 
0.000112964      9.65981     -63.4349 
2.68367e-05      1.14543     -114.775 
-0.000157137      5.42498     -84.4996 
-0.000111409      7.71596     -71.5651 
-0.000147472      6.84374     -66.5815 
-9.71433e-05      4.10366     -100.105 
0.000240766      9.02973     -82.8750 
-3.78645e-05      4.89506     -78.6901 
-3.82875e-05      8.84651     -73.4496 
-6.25920e-05      5.65601     -75.6689 
2.60049e-05      4.61805     -65.4328 
-0.000107692      10.0585     -67.3100 
7.19174e-05      2.23607     -100.305 
4.98304e-05      1.64195     -87.2073 
0.000143121      6.86289     -94.6804 
-0.000166915      6.36842     -63.1131 
-3.84099e-05     0.590593     -61.6992 
0.000203360     0.393954     -66.0375 
0.000120727      8.15725     -82.1083 
7.44457e-05      9.11596     -78.0984 
1.31563e-05      2.62480     -97.8831 
6.10264e-05      4.58170     -77.9052 
-9.56337e-05      5.56345     -68.0456 
5.93676e-05      4.40236     -61.8050 
0.000178362      2.23786     -65.7256 
-0.000225639     0.304631     -113.199 
0.000143153      2.40832     -101.497 
7.21746e-05      9.42380     -71.9496 
-0.000106378      7.64377     -88.2007 
0.000142693      9.21677     -75.4210 
0.000273027      4.57349     -101.605 
-0.000179593      4.87229     -102.325 
-4.89647e-05      7.42978     -69.5162 
-7.16996e-05      8.38637     -71.6515 
8.30734e-05      2.20436     -101.514 
-5.96701e-05      8.79682     -73.6252 
-0.000119022      8.63009     -85.2143 
-6.06116e-05      3.99299     -100.972 
-0.000129639      4.40454     -103.658 
0.000105733      8.36268     -76.1632 
-4.86066e-05      7.15374     -69.0315 
6.00581e-05      1.12925     -112.932 
-0.000116755      8.94606     -62.2892 
7.04090e-05      2.75536     -99.1888 
4.85133e-05      8.65563     -77.1840 
-7.04533e-05      6.75538     -72.4234 
0.000163443      8.98220     -64.6902 
8.16682e-05     0.268328     -26.5651 
-0.000105126      5.75124     -66.6444 
6.96030e-05      9.21095     -77.7141 
-0.000116486      2.34094     -73.1132 
0.000128068      6.63397     -69.1609 
0.000104259      1.35823     -76.3730 
9.25722e-05      9.60616     -63.5416 
0.000138325      8.38790     -66.9808 
-8.08466e-05      6.04437     -76.6075 
-8.07150e-05      8.94400     -70.6737 
-2.39709e-05      6.04794     -82.7810 
6.82344e-05      8.81090     -69.2613 
0.000102596      7.06020     -82.5126 
-7.98626e-05      8.88981     -77.5271 
-2.28250e-05      5.13887     -94.9118 
6.84869e-05      5.86310     -84.9117 
-3.48558e-05      3.92245     -78.2317 
6.75254e-05      2.53298     -111.297 
-3.39693e-05      7.46726     -69.6236 
-4.49608e-05      6.90797     -67.8906 
-4.55158e-05      5.37624     -72.2391 
-3.41153e-05      6.21855     -94.4270 
-7.88480e-05      5.48365     -92.0902 
3.41908e-05      7.20711     -87.4552 
2.27985e-05      4.55544     -73.1562 
6.76159e-05      5.74359     -84.8056 
-3.37184e-05      2.86356     -102.095 
-3.38466e-05      8.52938     -80.0076 
-3.34376e-05      6.11110     -79.0578 
4.46077e-05      1.48000     -108.925 
4.45061e-05      8.69464     -77.2425 
3.36068e-05     0.393954     -156.038 
4.44229e-05      7.42116     -85.6724 
-3.32277e-05      7.13089     -68.6164 
3.32127e-05      1.22442     -128.367 
-2.21170e-05      5.66604     -75.2770 
-4.39368e-05      4.45152     -94.1223 
-2.20394e-05      3.91449     -78.8049 
-2.20782e-05      9.82837     -71.4913 
-3.30169e-05      4.91137     -102.225 
2.20417e-05      9.10780     -78.3446 
2.20280e-05      3.04105     -88.4926 
-1.10678e-05      5.56920     -86.7060 
2.19731e-05      4.20476     -92.7263 
1.09999e-05      8.34707     -79.2285 
1.09656e-05      4.00360     -68.3049 
-1.09088e-05      7.29822     -82.7581 
-1.09063e-05      5.36850     -82.2925 
-1.08916e-05      5.23267     -78.0888 
-1.08240e-05      8.09938     -73.3550 
1.07874e-05      9.43627     -71.7187 
1.07751e-05      6.49344     -69.4440 
