! Center RA: 07 21 53.44848,  Dec: +71 20 36.36340 (2000.0)
! Tentative model.
! Flux (Jy) Radius (mas)  Theta (deg)  Major FWHM (mas)  Axial ratio   Phi (deg) T \
! Freq (Hz)     SpecIndex
-0.0119577      0.00000      0.00000 
-0.00428418    0.0400000      180.000 
-0.00101358    0.0565685     -135.000 
0.000706109     0.544059      36.0274 
0.00261801     0.203961      11.3099 
0.000914018     0.512250      38.6598 
0.00147461     0.521536      32.4712 
-0.000658680    0.0400000     -90.0000 
-0.00317936     0.233238      59.0362 
0.000170812     0.200000      0.00000 
-0.000221091     0.268328      63.4349 
0.00281296     0.164924      14.0362 
0.000563832     0.481664      41.6335 
0.00107053     0.856037      37.4054 
0.000393223      2.74372      44.4093 
-0.000787413      2.59600      33.6901 
0.000578033      2.41661      24.4440 
-0.000897361      2.36677      30.4655 
0.000844777      2.71529      45.0000 
0.000728323      2.68269      20.0561 
-0.000800539      1.97342      17.7004 
6.64951e-05     0.456070      37.8750 
0.000245888     0.594643      19.6538 
0.000877589     0.425206      41.1859 
0.000450142      2.93394      25.8664 
0.000462960     0.243310     -9.46232 
0.000531059      2.85237      22.2490 
0.000404830      2.36373      23.9625 
0.000461790      2.04313      23.0513 
-0.000431252      2.54055      33.4399 
5.45265e-05     0.610574      31.6075 
-0.000862054     0.379473      71.5651 
0.000619286      2.05913      24.0755 
0.000313126      2.50503      38.5169 
-0.000587770      2.21775      39.1440 
0.000604623     0.632456      34.6952 
0.000412153     0.948262      62.3540 
-0.000392515      1.23223      13.1340 
0.000641270     0.961665      73.0725 
-0.000405357      1.12641      6.11550 
-0.000482970      1.72325      21.8014 
0.000484417      2.85125      34.1359 
0.000843869      2.48032      37.7939 
0.000230406     0.824621      39.0939 
-0.000107173      1.73851      23.0255 
0.000123809      2.80713      40.9555 
-0.000367061      2.38160      29.1481 
-0.000413318      2.64847      25.0169 
0.000252341      2.95161      26.5651 
0.000137220     0.582409      15.9454 
7.28446e-05      2.86356      41.0353 
-9.90268e-05      2.11092      9.81930 
-0.000442945     0.796994      72.4744 
-0.000434989     0.796994      17.5256 
0.000144202     0.594643      47.7263 
-0.000482475      2.28980      19.3845 
0.000379265     0.395980      45.0000 
3.46021e-05      1.70880      16.3139 
0.000436519      1.75864      17.1985 
-0.000215505      1.48216     -3.09406 
6.07022e-05      2.92000      41.1121 
-0.000298276      2.61840      34.4184 
0.000223298      1.32966      21.1613 
0.000277543      2.80029      21.8014 
-8.24599e-05      2.40832      11.4966 
-0.000271137      2.68924      22.7510 
-0.000120641      2.68209      17.3540 
0.000228052     0.144222     -146.310 
4.09601e-05     0.632456      18.4349 
0.000172847      2.50440      26.5651 
-0.000119555      1.76045      21.3179 
-0.000104239      1.60649      18.8861 
9.18871e-05      2.46447      35.7539 
-0.000116972      2.38193      40.9144 
7.74462e-05      1.44499      4.76364 
-3.83111e-05     0.950789      22.2490 
-3.80688e-05      2.51873      32.6806 
2.53065e-05      2.28561      32.8557 
-1.25577e-05      2.41661      28.6861 
-1.24617e-05     0.809938      20.2249 
