! Center RA: 17 51 32.81857,  Dec: +09 39 00.72829 (2000.0)
! Tentative model.
! Flux (Jy) Radius (mas)  Theta (deg)  Major FWHM (mas)  Axial ratio   Phi (deg) T \
! Freq (Hz)     SpecIndex
 0.0755046    0.0400000      0.00000 
 0.0233587    0.0800000      0.00000 
0.00322945    0.0400000     -90.0000 
0.00847637     0.164924      14.0362 
 0.0121043    0.0565685     -135.000 
0.00867086     0.203961      11.3099 
0.00120923     0.215407      21.8014 
0.00323330     0.252982      18.4349 
0.00122738      1.21062      7.59464 
0.00496984    0.0894427     -153.435 
0.00233857      1.07703      15.0685 
0.00106607      1.00000      0.00000 
0.00145736      1.24579      5.52754 
0.000889676      1.00080      2.29061 
0.00233736     0.698570      13.2405 
-0.00400641     0.312410      50.1944 
-0.00488351     0.144222      146.310 
0.000924305     0.960833      2.38594 
0.000138052      1.28561      5.35582 
0.000393202      1.28062      1.78991 
0.000320113      1.25028      7.35238 
0.000367741      1.48000      18.9246 
0.000273192     0.233238     -149.036 
0.00117245      1.86118      28.2174 
0.000568374     0.920869      2.48955 
0.000333249      1.51789      18.4349 
0.00434918      0.00000      0.00000 
-0.000588746     0.200000     -36.8699 
0.000255169      1.10635      12.5288 
0.000791485     0.268328     -153.435 
-0.00129420      1.10055     -19.0935 
0.000466666      1.32061      1.73570 
4.66963e-05      1.13772      10.1247 
-0.00251980     0.178885     -26.5651 
0.000605135     0.880909      2.60256 
0.000265976      1.28996      7.12502 
0.00104686      1.28000      0.00000 
-0.000639832      2.48805      4.61065 
0.000992942     0.729931      9.46232 
0.000442640     0.644981     -29.7449 
-0.00242992     0.113137      135.000 
0.000465028     0.243310      9.46232 
-9.33475e-05     0.339411      45.0000 
-0.00167449     0.169706     -45.0000 
-0.000255941      2.07885      11.0937 
-0.000248758     0.368782      49.3987 
-8.65966e-05      2.03961      11.3099 
0.000374315      2.44131      18.1381 
0.000404471      1.32966      6.91123 
0.000867080     0.680000     -28.0725 
-0.000880204      2.00878      12.6526 
-0.000785505      1.06283     -19.7989 
0.000453458      2.00998      5.71059 
0.00100437     0.282843      8.13010 
0.00210697    0.0400000      180.000 
-0.000294513     0.395980      45.0000 
-9.23617e-05      2.04783      12.4074 
-0.000211638      2.40533      3.81407 
-0.000281832      1.88043     -1.21888 
0.000328053      1.82603      28.8108 
0.000621166      2.40333      18.4349 
8.94298e-05      1.12641     -6.11550 
-0.000282519      1.70082      41.1859 
8.32259e-05      2.78539      12.4396 
-0.000146551     0.708802     -16.3895 
-2.11210e-05      2.65481      6.05419 
0.000135840      1.17098     -7.85331 
0.000109451      1.55589      17.9691 
-0.000302225      2.65932      6.91123 
0.000221386     0.690507      10.0080 
-0.000248078     0.670522     -17.3540 
-0.000170857     0.425206      41.1859 
0.000265782      1.97018      5.82634 
-0.000258196      2.14402      8.58362 
0.000198955      2.77705      11.6336 
0.000240348      1.36938      6.70984 
-0.000156126      1.84043     -1.24536 
0.000141635     0.322490      7.12502 
-0.000232179     0.659697     -14.0362 
-0.000101959     0.620967     -14.9314 
-0.000135504     0.456070      37.8750 
-0.000441599    0.0894427      116.565 
0.000113497      1.21062     -7.59464 
-0.000127302      1.77629     -7.76517 
-0.000127102      2.16924      22.7824 
0.000126279      2.68328      10.3048 
6.29369e-05      2.03096      32.1250 
-0.000124690     0.501199     -28.6105 
-1.60598e-05      2.61503      6.14663 
-9.33394e-05     0.488262      34.9920 
4.62400e-05      1.32000      0.00000 
-6.10948e-05     0.835225      16.6992 
