! Center RA: 04 33 11.09553,  Dec: +05 21 15.61921 (2000.0)
! Tentative model.
! Flux (Jy) Radius (mas)  Theta (deg)  Major FWHM (mas)  Axial ratio   Phi (deg) T \
! Freq (Hz)     SpecIndex
0.00508461      1.18929     -109.654 
0.00265491      1.20333     -111.448 
0.00251914      1.22703     -109.026 
0.00147972      1.00000     -106.260 
0.00172228     0.961665     -106.928 
0.000890803      1.01193     -108.435 
0.00159189      1.21458     -107.241 
0.00145136      1.30231     -100.620 
0.000856657     0.974064     -109.179 
-0.00127439     0.417612     -163.301 
-0.00127160     0.203961      168.690 
0.000531865      1.12925     -112.932 
-0.00224162     0.329848      104.036 
-0.000515231      10.6437     -116.565 
-0.000570514     0.291204     -105.945 
0.000468933     0.936376     -109.983 
-0.000460255      10.6616     -116.757 
0.000494376      1.07703     -111.801 
0.000426870      1.20333     -105.422 
-0.000250567      10.6974     -116.661 
0.000479639      1.29553     -98.8807 
0.000582399      10.2525     -112.964 
-0.000564489     0.641249     -93.5763 
0.00153338     0.400000      53.1301 
-3.18328e-05     0.178885      153.435 
-0.00116024     0.226274      135.000 
-0.000223405      10.8048     -116.850 
-0.000160907     0.288444     -123.690 
5.63460e-05      10.9265     -112.152 
0.000617461     0.898888     -110.854 
-5.64385e-05      3.92020     -118.657 
8.16110e-05     0.989545     -104.036 
0.000283575      10.9417     -112.346 
-0.000232507      3.90118     -118.142 
-5.59315e-05     0.200000      143.130 
0.000196453      1.17644     -107.819 
0.00138097     0.291204      15.9454 
-0.000897232      10.2323     -116.465 
-0.000412426     0.600000     -90.0000 
-0.000366494      2.81311     -119.846 
-0.000395408     0.393954     -156.038 
-0.000396695     0.407922     -78.6901 
-0.000155946      11.1625     -116.381 
7.05640e-05     0.980612     -101.768 
-4.79996e-05      10.7868     -116.660 
-0.000304781      3.93954     -119.168 
0.000698188      10.2000     -115.058 
-0.000549403     0.820731     -136.975 
0.000482469      3.20225     -110.472 
0.000222603      10.9200     -112.620 
-0.000141127     0.268328     -116.565 
-0.000124291      11.2161     -116.474 
-0.000121749      10.8226     -116.565 
0.000320097      10.9486     -111.879 
-6.33004e-05      3.88247     -117.621 
0.000191606     0.973242     -99.4623 
6.06851e-05      10.2157     -113.051 
-0.000458544     0.486621     -80.5377 
-2.06244e-05      10.6625     -115.796 
0.000227408      10.6893     -112.438 
-0.000177289      10.6452     -115.602 
0.000354811      3.40635     -99.4623 
0.000282435      9.73850     -112.457 
-0.000173771      3.86430     -115.769 
-8.26060e-05      2.77849     -120.256 
-0.000417656      3.85352     -99.5601 
0.000105607      1.14543     -114.775 
-5.30034e-05      10.9124     -116.095 
0.000162021      10.2314     -113.257 
-8.30681e-05      4.28075     -113.691 
-0.000174289      3.86988     -119.745 
0.000125801      1.09252     -113.749 
0.000143326      10.9354     -112.813 
-3.44011e-05      10.4369     -112.535 
-0.000126943      10.8406     -116.281 
-3.19256e-05     0.379473     -161.565 
-7.95276e-05      4.20476     -115.346 
0.000218353     0.832346     -125.218 
-0.000187257      10.4217     -112.332 
9.29116e-05     0.967471     -97.1250 
-9.60857e-05      9.97934     -113.380 
-3.22531e-05      3.85539     -112.574 
0.000139200      2.89993     -114.444 
-0.000137802      4.13299     -104.574 
0.000184537     0.322490      29.7449 
-6.14909e-05     0.160000      180.000 
1.53655e-05      1.54402     -106.557 
-1.52958e-05      10.0005     -115.848 
-0.000103544      9.92677     -113.259 
-4.44611e-05      3.90774     -112.891 
-1.50960e-05      4.18779     -114.852 
-4.40843e-05      10.8765     -116.188 
4.44077e-05      10.7046     -112.636 
-1.47786e-05      10.3039     -116.764 
4.37723e-05      10.2362     -114.963 
4.35996e-05      10.9562     -118.811 
2.88801e-05      10.8986     -112.895 
1.43768e-05      10.0744     -115.141 
