! Center RA: 04 33 11.09553,  Dec: +05 21 15.61921 (2000.0)
! Tentative model.
! Flux (Jy) Radius (mas)  Theta (deg)  Major FWHM (mas)  Axial ratio   Phi (deg) T \
! Freq (Hz)     SpecIndex
0.00271758      1.18929     -109.654 
0.00269586      1.20333     -111.448 
0.000545485      1.24065     -110.772 
0.00387738      1.22703     -109.026 
0.00419887     0.980612     -101.768 
0.000143347      1.21852     -113.199 
-0.00156830     0.430813     -158.199 
6.46501e-05      1.23483     -114.905 
0.000104713      1.23548     -119.055 
0.00102902      1.25539     -120.651 
0.00147191      1.25284     -106.699 
0.000602703     0.976524     -124.992 
-0.00115804     0.322490     -97.1250 
0.00169735      1.09836     -123.111 
0.00159751      10.9200     -112.620 
-0.00166622     0.291204      105.945 
0.000454281      10.9569     -112.539 
0.00127429     0.538145     -138.013 
0.000513851     0.927793     -97.4314 
0.000622887     0.164924     -75.9638 
-0.00116644     0.368782     -102.529 
-0.000679711      2.54275     -109.290 
-0.000835786      10.4219     -111.148 
8.95092e-05      1.17644     -107.819 
-0.000144065      10.8962     -115.436 
0.000959479     0.256125      51.3402 
-0.000847439      10.9320     -117.690 
-0.000113941      11.1625     -116.381 
-0.000825850     0.226274      135.000 
-0.000404167     0.684690     -96.7098 
-0.000615802      4.20438     -111.194 
0.000106386     0.368782      49.3987 
-0.000615853      11.1448     -116.197 
-0.000894718      1.64438     -108.435 
7.43988e-05      1.12641     -106.504 
-0.000226659      10.7517     -117.232 
-0.000517564      4.18187     -104.967 
-0.000114068      10.5036     -117.931 
-7.16439e-05      10.8791     -115.246 
-0.000282799     0.791960     -135.000 
0.000651998      10.9019     -118.728 
0.000115235     0.865332     -123.690 
-2.45411e-05      10.5224     -118.124 
0.000412973     0.400000      53.1301 
0.000372791      3.23110     -105.068 
0.000335199      11.0462     -112.572 
0.000451721      10.1739     -113.642 
-0.000235861      2.73233     -107.904 
4.31596e-05      1.15378     -123.690 
0.000410939      10.9354     -112.813 
0.000203401      1.11571     -104.534 
-0.000292456      3.49285     -113.629 
9.78723e-05      3.40635     -99.4623 
0.000439919      4.27720     -114.887 
-0.000592755      1.08000     -90.0000 
0.000251720     0.840952     -92.7263 
-0.000308206     0.641249     -93.5763 
-0.000164562      10.4364     -111.353 
5.69947e-05     0.933809     -99.8658 
-1.90189e-05      10.5577     -118.021 
-0.000135233      10.7701     -117.422 
-0.000268247      10.6075     -119.852 
-0.000181818      10.3992     -111.433 
0.000245282      1.29120     -106.189 
-0.000116255      3.99940     -98.0491 
3.54249e-05     0.178885     -63.4349 
0.000186127     0.233238      59.0362 
3.53464e-05      3.45254     -100.008 
-0.000195347      10.6146     -111.441 
-5.01910e-05      9.90596     -113.563 
-5.04542e-05     0.820731     -136.975 
0.000144449      3.45971     -100.660 
-0.000144887      9.95863     -113.682 
0.000127824     0.288444     -33.6901 
-0.000206026     0.379473     -108.435 
6.23626e-05     0.809938     -122.905 
-4.84353e-05      4.02651     -103.208 
0.000109966      10.9212     -118.912 
-9.37727e-05      2.80856     -107.403 
3.15866e-05     0.973242     -99.4623 
-0.000123867      4.08000     -118.072 
-7.71616e-05     0.848528     -135.000 
0.000107625     0.178885      63.4349 
6.14090e-05      1.10635     -102.529 
6.14172e-05      10.5519     -113.455 
1.54130e-05      10.2154     -115.762 
6.07545e-05      10.8406     -116.281 
3.02667e-05      3.62480     -112.036 
-1.50892e-05      4.03584     -103.761 
1.49695e-05      2.72118     -114.305 
-1.49304e-05      10.6000     -111.239 
