! Center RA: 04 23 15.80073,  Dec: -01 20 33.06555 (2000.0)
! Tentative model.
! Flux (Jy) Radius (mas)  Theta (deg)  Major FWHM (mas)  Axial ratio   Phi (deg) T \
! Freq (Hz)     SpecIndex
 0.0119306    0.0400000      180.000 
0.000475745      0.00000      0.00000 
-0.00179998     0.944034     -143.616 
-0.000995550     0.481664      138.366 
0.000506234      4.30256     -174.130 
-0.00163026     0.483322      114.444 
0.00183611      5.26574     -174.333 
0.000776655    0.0565685      135.000 
-0.000407108     0.452548      135.000 
0.00125605      4.19237     -172.875 
0.000532267      4.08960     -176.074 
-0.00130951      1.09252     -156.251 
0.000460607      3.28219      177.905 
0.00148116      3.68912      170.640 
0.000168878      3.29557     -174.428 
-0.000886357      1.03769      152.447 
0.000655015      3.29970     -173.737 
0.000546466      3.73374      175.083 
0.000472875      5.25525     -175.635 
0.000811409      4.16480      177.248 
0.000606303      2.53393     -168.158 
0.000126612      4.30070     -161.565 
0.000384355      4.09253     -175.515 
-0.000360157     0.425206      138.814 
0.000696379      4.33866     -161.732 
-0.000996808      4.80067      179.045 
0.000395465      4.12698      176.666 
0.000206567      4.28822     -162.072 
2.89111e-05     0.796994      162.474 
0.000443988     0.835225      163.301 
-0.000147422     0.761052     -176.987 
-0.000629615      3.40376     -160.074 
-0.000849969      1.45602      164.055 
-0.000447181      2.55249     -147.804 
0.000448917      5.25235     -176.070 
0.000461999     0.923472      162.350 
0.000801346      1.86075      154.537 
-0.000329564      3.32024     -148.799 
-4.81973e-05      4.44288     -159.444 
-0.000559085      4.61649     -171.027 
0.000359937      3.45624     -156.105 
0.000487786      4.13241     -175.559 
-0.000546033      4.40545     -159.261 
0.000203325    0.0400000      90.0000 
-0.000388322     0.968297     -141.710 
0.000192200      2.74401     -143.297 
-0.000180266      1.98957     -149.826 
-6.20478e-05      1.41421     -151.260 
-0.000124357      3.61419     -152.301 
0.000265488      1.92416     -159.305 
0.000409059      2.00998      174.289 
0.000440461     0.873613      164.055 
6.01779e-05      1.60649     -161.114 
-0.000293310      4.61042     -171.518 
-0.000295469      3.88021      179.409 
0.000217636      4.37667     -161.896 
0.000236125      5.10952     -170.538 
-0.000198008      1.32061     -178.264 
0.000190149      3.59377     -163.179 
-0.000303762      3.80084      178.794 
-0.000253094      3.63296     -151.742 
-7.24330e-05     0.395980      135.000 
0.000229734      1.64438     -161.565 
-7.51615e-05      1.37928     -150.461 
1.90313e-05      4.36165      178.423 
-0.000352081     0.268328     -26.5651 
0.000210752      4.40164      178.438 
-0.000121855      1.50572      163.009 
-0.000176392      1.12925     -157.068 
0.000190938    0.0565685      45.0000 
-0.000245700      1.41760      163.610 
0.000240982      3.63208     -163.361 
0.000138571      4.16692      176.698 
0.000119865     0.961665      163.072 
-8.58632e-05      1.34462     -149.621 
6.85176e-05      4.11145     -160.684 
-6.82801e-05      1.96977     -150.832 
-0.000100616      1.05679      150.524 
-1.64651e-05      1.31027     -148.736 
1.64009e-05      2.62968     -153.825 
-1.63449e-05      1.28250     -176.424 
