! Center RA: 22 02 43.29137,  Dec: +42 16 39.97987 (2000.0)
! Tentative model.
! Flux (Jy) Radius (mas)  Theta (deg)  Major FWHM (mas)  Axial ratio   Phi (deg) T \
! Freq (Hz)     SpecIndex
 0.0224426    0.0400000      0.00000 
-0.0168600     0.243310     -170.538 
-0.00331077     0.240000      180.000 
-0.00892199     0.203961     -168.690 
0.00110198    0.0565685      45.0000 
0.00325995     0.215407      21.8014 
0.00715073      0.00000      0.00000 
0.00354659     0.430813     -158.199 
0.00136405     0.456070     -164.745 
-0.000342624     0.304631     -23.1986 
-0.00191673     0.215407     -21.8014 
-0.00159600     0.169706     -135.000 
-0.00151387      3.24222      177.879 
-0.000719937      5.04460      153.638 
0.00126216      7.92162     -178.843 
-0.00173104     0.357771     -26.5651 
-0.000325217      1.32000      180.000 
-0.000763443      1.49933     -170.789 
-0.000365826      1.36000      180.000 
0.00120678      9.16803      165.600 
-0.000489799      2.65481     -173.946 
-0.000488344      5.00879      153.435 
0.000190826      7.28857      173.382 
-0.000576229      5.01789      171.289 
-0.000133586      5.26574      174.333 
-0.000375803      1.36059     -178.315 
-0.000414107      8.71752      172.353 
0.00130709     0.411825     -150.945 
0.00132155      6.78174     -165.308 
-0.000408324      5.22211      174.726 
0.000632915      1.10055     -160.907 
-0.000857582      1.50625     -169.287 
-0.00108777      5.67408     -155.422 
-0.000362069      5.26194      174.766 
-8.69956e-05     0.164924     -104.036 
-0.000506293      7.15027     -171.961 
-0.000345608      2.36542      176.121 
0.000636420      8.24621     -177.776 
0.000453612      8.24476     -168.527 
0.000862761      7.24883      173.346 
-0.00123237      8.90914      175.365 
-0.00133770      3.73888     -153.983 
-4.22431e-05      5.42129      152.301 
-0.000293702      2.81823     -173.480 
0.000541812      5.14307     -164.667 
-0.000648691      1.92208     -167.989 
-0.00110380      5.40281      152.676 
-0.00158259     0.178885     -26.5651 
0.000804532      6.86988      174.655 
-0.000974839      3.68782      176.269 
-0.000282506      2.86775     -157.011 
-0.000347966      2.85797     -173.571 
0.000524689      4.13628     -161.390 
-0.000842295      5.03746      159.550 
-0.000627796      2.88361     -156.280 
-0.000441838     0.200000      180.000 
-0.00140897      5.27788     -152.464 
-0.000175835      5.18768      162.962 
-0.000540957     0.144222     -123.690 
0.000438462     0.960833     -177.614 
0.00122935      8.12985     -165.759 
0.000197401      6.12222      161.328 
-0.000102409      3.12231     -177.797 
-0.000190829      6.88767      152.691 
-0.000264233      4.65188     -152.333 
-0.000136561     0.322490      172.875 
-3.56784e-05      3.77486     -154.250 
-0.000402936      3.08415     -177.026 
-0.000243050      6.89638      150.461 
0.000784714      7.38777     -175.030 
-0.000459283      4.63534     -151.666 
0.000182588      4.73506     -171.254 
-0.000343616      2.36305      177.089 
0.000902557      5.90715     -161.442 
-0.000521270      6.99463      153.875 
-0.000296406      8.71229      172.614 
-0.000516916      1.32966     -173.089 
0.000238003      7.26162      175.577 
-0.000472753      7.32011      171.516 
-0.000756494      9.00995      158.104 
0.000478126      4.76873     -171.802 
0.000289398     0.610574      148.392 
-7.50845e-05      4.74384      160.801 
-0.000622904     0.368782      167.471 
0.000510104      5.36015     -179.572 
-3.21548e-05      1.71020     -169.216 
-0.000966538      3.36476     -161.996 
-6.23122e-05      1.40057     -178.363 
-3.20127e-05      7.02328     -170.162 
0.000313302      1.04995     -162.255 
-0.000354939      1.93080     -166.827 
-0.000117261      5.19954      162.541 
-0.000276792     0.178885     -153.435 
-0.000109974      6.93767     -170.375 
-0.00100541      8.04398      167.069 
-0.00127061      5.18614      161.565 
-0.000215657      6.89638     -172.669 
-0.000188817      8.05868      160.576 
-0.000395258      8.99004      172.843 
-0.000232026      2.52000      180.000 
-8.70910e-05      8.37339      154.537 
0.000459176      5.90823      162.669 
-0.000590486      1.67905     -167.619 
-0.000556030      3.02152     -173.157 
-0.000313025      4.99103     -153.846 
-5.80090e-05      1.48054     -178.452 
-0.000929420      7.15061      166.741 
-0.00130183      4.88262     -161.862 
0.000567364      7.39557      164.310 
-0.000372042      5.85054      154.486 
-0.000299232      6.29768      154.411 
8.36583e-05      5.07102     -173.660 
-5.38004e-05      2.65089     -174.806 
-2.84720e-05      7.32612      171.206 
-0.000201484      9.07727      155.807 
-5.56856e-05      4.88475      152.176 
0.000471132      7.89744     -165.330 
0.000285283      5.65714     -175.539 
-0.000214291      6.82513     -168.163 
-0.000514105      7.36565      171.254 
-0.000926267      1.52053     -178.493 
-0.000568136      7.97847      153.820 
-0.000437582      8.34458      175.601 
-0.000306501      8.24010     -179.722 
0.000321001      7.26482      175.263 
-0.000379956      6.99177      147.856 
-0.000806911      7.01131     -163.426 
0.000483601      6.12222      170.599 
-0.000346566      5.38516      164.932 
0.000175200      4.09839     -161.211 
0.000566051      8.20975     -177.207 
-5.10720e-05      8.42672      154.408 
-0.000798994      3.48827     -153.435 
0.000130553      9.27586      165.005 
0.000947635      7.57638      158.311 
-0.000170816      7.56011     -179.697 
0.000253629      5.32015     -179.569 
-0.000159827      8.08950      171.469 
-0.000513744      7.95719      156.915 
0.000406478     0.751532      154.799 
-0.000178363      4.83073      152.374 
0.000323377      4.98462     -157.345 
0.000226117      5.07559     -173.211 
0.00103507      4.70880      163.720 
-9.38324e-05      1.28000      180.000 
-0.000155240      7.06269     -170.218 
0.000170186      4.33368      170.972 
0.000312177      9.17806      165.358 
-6.86951e-05      7.01416      152.120 
-6.88195e-05      4.92715      172.067 
-0.000697669      7.75319     -170.198 
-0.000251819      1.96122     -168.232 
-0.000427441      5.87074      151.514 
0.000400299      3.42462      165.801 
9.05664e-05      6.08434      161.208 
0.000230118     0.923472     -175.030 
-0.000476767      5.51725     -173.339 
-0.00108522     0.164924     -165.964 
9.20284e-05      4.11145     -160.684 
-6.70766e-05      5.46772      168.608 
0.000319359      1.01193     -161.565 
0.000310222      4.55122     -167.307 
0.000526432      5.61826      160.017 
0.000144367      5.44059     -179.157 
-0.000387491      8.30788      175.305 
-0.000457508      5.42852      168.524 
0.000775003      4.49035     -154.120 
0.000217326     0.486621     -170.538 
-0.000336504      1.72418      176.009 
-0.000156527      7.56000      180.000 
2.38126e-05      6.74341     -162.747 
0.000627331      6.56000      180.000 
-2.36320e-05      3.08234     -177.769 
-0.000455797      3.44372     -177.337 
0.000151607      6.74721     -163.821 
0.000221749     0.576888      146.310 
0.000471394      4.16192     -166.097 
-4.54755e-05      8.40952      154.654 
-4.52739e-05      6.78599     -168.094 
-0.000456215      6.93605     -172.711 
-8.60311e-05      3.37520     -148.570 
0.000200419      8.24970     -177.221 
-0.000140450      4.61649     -152.103 
-0.000586552      7.84653      159.717 
0.000618514    0.0400000      90.0000 
-0.000128283      5.60143     -173.027 
0.000134405      8.28396     -168.582 
-0.000108280      7.25865      156.967 
-4.37164e-05      8.66755      172.842 
-0.000165244      3.36238     -147.633 
0.000207387      4.69774      164.189 
0.000574318      2.78280     -161.565 
-0.000521926      8.48462      155.489 
0.000157471      5.13264     -165.097 
-0.000234185      4.92016      154.477 
-0.000413593      4.40654      176.878 
0.000625965      8.25397      176.666 
-0.000142104      6.03523     -166.977 
0.000430226      4.07372     -160.498 
0.000825155     0.377359     -147.995 
-0.000414060      8.46914      172.674 
-0.000256038      5.88666      154.654 
0.000217425      6.83345      169.545 
6.10310e-05      8.53285      163.944 
-4.10320e-05      8.00770      160.750 
-0.000322699      2.92246     -149.574 
-4.04389e-05      3.81093     -159.092 
-0.000589025      7.60011     -179.698 
-0.000165400      7.86791      166.176 
-0.000332477      7.29548      157.090 
-2.04012e-05      6.95977      154.466 
-0.000185626      8.67862      162.567 
-0.000155886      3.29169     -154.058 
-0.000560054      7.55757     -165.596 
0.000565842      3.10483     -165.069 
-0.000362503      5.41465     -167.196 
0.000544788      8.37234      157.233 
-0.000126517      7.12101     -179.034 
0.000213145      5.61726     -175.507 
0.000397650      5.84452      168.152 
-0.000298586      8.20000      180.000 
0.000267292      5.40059     -179.151 
-0.000338178      6.94262      154.764 
0.000178485      6.70880     -163.726 
-0.000264083      6.28051      154.741 
-0.000539540      4.52212     -164.612 
0.000153943      4.92715     -172.067 
0.000402212      8.06226     -170.865 
0.000489144      8.52188      164.202 
-0.000162754      1.44499      175.236 
-0.000166247      8.08366      171.750 
-0.000224490      2.60277      177.357 
-0.000121497      6.91618      150.173 
3.64104e-05      6.04649      161.086 
0.000473060      3.78904      169.046 
-0.000172767      8.04547      160.844 
0.000486136      5.11077     -173.709 
0.000517134      8.03532      151.777 
-0.000310189      6.35836      158.600 
0.000240807      2.96108      178.452 
-0.000147028      6.97389     -168.755 
-0.000674069      4.77678     -152.577 
0.000265282      2.76203      169.992 
-0.000290939      2.42553      166.651 
-0.000442412      3.75617      172.042 
-0.000205640      4.94659      149.910 
-8.45687e-05      1.28062      178.210 
-0.000280820      8.32500      160.346 
3.08224e-05      6.79200     -164.982 
0.000354509      6.86627      174.987 
0.000451324      6.29641      166.405 
-5.50601e-05      6.02634     -167.347 
0.000322535      7.44312      173.830 
0.000167256      8.10432      158.881 
0.000297858     0.920869     -177.510 
0.000209595      7.34629      164.526 
0.000134694      7.63791      174.289 
-0.000555448      8.99511      158.341 
-0.000583512      3.39623     -147.995 
-3.55084e-05      3.79684     -159.656 
-0.000519445      5.99627     -166.891 
-5.04599e-05      8.21365      154.933 
-0.000359104      6.72761      177.274 
-0.000140328      3.34401      173.130 
-0.000303179      7.50690     -172.345 
0.000344207      3.46433     -143.924 
0.000597568      4.96258      178.152 
5.25830e-05     0.974064     -160.821 
-3.53435e-05     0.609262     -156.801 
-0.000115096      2.59044     -166.608 
-0.000160888      3.86595     -151.579 
-0.000317508      3.84666     -163.072 
0.000449746      5.17131     -165.211 
-0.000237478      3.60799     -176.186 
0.000244922      6.69483      159.724 
-0.000201801      5.65459     -154.885 
9.21943e-05      6.83064     -165.069 
-0.000321343     0.594643     -160.346 
-0.000195919      4.97948      174.931 
0.000277015      4.94190     -150.945 
-0.000368487      9.03478      172.623 
-0.000356369      5.83520     -173.703 
0.000518738     0.936376     -160.017 
0.000129175      5.57853     -157.665 
-4.87145e-05      5.60143      168.048 
-0.000119770      7.00457      148.307 
3.12881e-05      6.90716      160.726 
-0.000445960      5.47752     -173.290 
0.000113898      7.35706      164.226 
0.000180716      4.28803      171.416 
-6.40847e-05      1.32544     -174.806 
-0.000527854      6.34690      169.469 
-0.000342423      7.92162      178.843 
-0.000304293      4.45457      175.365 
0.000366712      6.53667     -170.134 
-0.000365233      6.79694      157.510 
-0.000323327      4.81348     -175.711 
0.000157617      7.26746     -166.958 
-3.13046e-05      5.05743      171.357 
-3.19015e-05      7.83878      165.822 
0.000135222      3.90056     -174.114 
0.000191905      4.37539      165.710 
-0.000260606      3.31904     -167.471 
-0.000111086      7.46726     -172.304 
0.000107442      6.87907      171.304 
-0.000118212      9.38578      161.874 
0.000140982      6.59030     -171.624 
-0.000243025      7.76000      180.000 
0.000119886      8.23310     -170.492 
-0.000380336      4.58955     -173.494 
8.54839e-05      1.44222     -160.560 
-0.000263812      5.85177      151.858 
-1.56150e-05      6.85215      152.537 
-0.000246990      8.16010      179.719 
-0.000202604      7.82907      166.106 
-8.24929e-05      5.55899      166.264 
-0.000262332      8.77980      166.027 
-0.000216792      6.97080      150.051 
-0.000221779      8.46499      155.130 
-0.000169815      3.94928      173.019 
2.96605e-05      4.47303     -154.581 
-0.000219044      4.75512      167.367 
0.000119860      8.49593      168.320 
-0.000199173      1.28561     -174.644 
-0.000245762      2.41661      167.574 
-0.000254676      4.91203      149.676 
0.000127777      4.96935     -157.770 
0.000107662      7.88162     -178.837 
0.000131712      6.27694     -165.610 
0.000131075      4.93283     -171.607 
-0.000121050      6.45105     -161.565 
-0.000166359      4.92065     -162.007 
5.60487e-05      5.82093      171.703 
9.13885e-05      6.84082      169.216 
-0.000168923      7.31114      156.801 
-0.000265862      6.10953      174.364 
0.000199081      5.60471      160.401 
1.43971e-05      6.49344     -159.444 
-7.68421e-05      5.84055     -156.595 
-0.000177802     0.417612      163.301 
-7.66136e-05      5.17363     -161.985 
-6.80326e-05     0.144222     -146.310 
-0.000126841      7.46726     -163.507 
-0.000339420     0.322490     -29.7449 
-0.000287847      5.68127      178.790 
0.000125061      5.84493     -177.647 
4.16842e-05      4.41851     -153.667 
-1.42112e-05      7.97295      156.650 
-0.000160857      3.67696     -171.870 
-0.000153010      3.88515     -151.060 
-0.000123750      7.14927      160.044 
9.50661e-05      6.88291     -178.335 
-0.000100896      7.85234      157.223 
9.07201e-05      8.08999      159.146 
0.000152926      6.53091     -159.567 
0.000202190      4.52637     -154.341 
-0.000201136     0.954149     -146.976 
-4.13513e-05      7.93191      155.891 
-1.39451e-05      7.51234     -172.042 
0.000142448      3.78164      169.641 
-8.98969e-05      8.06553     -167.687 
0.000272520      3.86078     -174.053 
0.000135389     0.787909      156.038 
-0.000115864      8.18281      167.866 
6.19097e-05      8.13929     -176.055 
3.76162e-05      6.72726      170.762 
-3.74630e-05      8.16049      155.068 
2.58675e-05      3.46341      165.964 
-0.000137239      9.34777      161.798 
0.000122920      2.76926      169.177 
0.000171448      5.81983      175.269 
0.000136481      6.07816     -173.577 
-0.000208107      6.84690      173.290 
-0.000157745      4.78029     -155.794 
6.26257e-05      1.49345     -159.624 
8.57911e-05      6.75230      166.293 
-1.33572e-05      7.96161      178.848 
-2.63818e-05      1.56205     -177.064 
-0.000157309      7.96844      156.008 
7.37443e-05      8.52713      168.637 
0.000109421      3.98497     -160.656 
0.000133119      4.38269     -153.435 
1.32887e-05      9.13937      165.295 
-0.000120612      8.07802      172.030 
0.000108875      5.66265     -171.469 
0.000228268      8.06870     -170.584 
-0.000145636      6.36050     -179.279 
3.80423e-05      9.23723      164.941 
0.000133871      7.06360     -166.908 
0.000120430      5.78135      171.646 
-0.000144211      6.51423     -158.003 
4.76917e-05      7.12067     -173.873 
-0.000109613      5.01932      174.971 
-2.47032e-05      3.03710      167.062 
-7.17760e-05      5.86965      155.007 
0.000178411      6.88418     -178.002 
0.000107242      7.55661      150.857 
-2.47963e-05      4.90159      153.853 
-7.15793e-05      2.81397     -174.289 
-9.40600e-05      7.89633      163.217 
-5.92215e-05      8.30778      169.177 
3.51122e-05      7.22174      175.553 
0.000152544      7.03454      162.801 
-0.000105734      5.82244     -167.300 
8.28459e-05      9.22692      165.181 
-7.01943e-05      6.11110      169.058 
-5.83752e-05      5.46260     -166.880 
3.55599e-05      6.50415      175.061 
0.000104951      5.57049     -169.658 
-0.000186984      5.60742     -165.964 
7.01226e-05      5.80124     -158.565 
7.00871e-05      7.64199      173.991 
-0.000139865      9.22267      162.587 
-4.65841e-05      4.84793      153.012 
-8.19709e-05      7.60316      152.761 
-9.31905e-05      6.60594      177.571 
5.82906e-05      7.97215      176.836 
1.21931e-05      4.50156     -157.537 
-5.76950e-05      8.24349      178.332 
8.14591e-05      3.99700     -157.027 
-1.21239e-05      8.19678      155.186 
-3.51889e-05      5.21858      175.163 
-5.90291e-05      7.15989      166.430 
4.65967e-05      6.59624     -171.280 
-0.000103684      5.01278     -168.959 
5.81836e-05      8.89125      154.127 
6.95558e-05      6.06432     -169.357 
-4.60282e-05      3.27439     -154.687 
-4.61559e-05      5.00688      167.074 
-3.48632e-05      6.17531     -159.922 
-5.76974e-05      7.02544      149.931 
-6.89812e-05      8.08297      167.133 
-3.48568e-05      2.60492      176.479 
6.94959e-05      4.55368      161.565 
1.19178e-05      5.53852     -169.177 
9.12537e-05      9.69569      156.926 
-4.59286e-05      6.81704     -168.492 
5.74157e-05      2.43705     -156.801 
-3.44270e-05      8.32586     -167.232 
4.57626e-05      7.25854     -167.266 
-4.54472e-05      1.68808     -166.293 
-2.31209e-05      5.51072      166.569 
5.66608e-05      6.67137      159.283 
-4.53607e-05      4.44450      177.421 
5.69449e-05      8.33547      157.126 
-2.27032e-05      2.84703     -155.956 
-1.16228e-05      8.66672      162.820 
3.42096e-05      7.39870     -169.723 
3.41795e-05      4.51221     -167.196 
-4.52590e-05      7.64010     -179.700 
-1.15770e-05      3.60555     -176.820 
-2.25942e-05      3.70297     -153.712 
-2.25949e-05      2.16000      180.000 
-1.14549e-05      8.08327      160.937 
-2.27004e-05      7.71378     -170.147 
-4.49272e-05      7.37965      156.353 
3.36528e-05      8.01768     -173.123 
-3.37977e-05      8.05710     -167.965 
-2.25586e-05      6.82642     -174.958 
1.13478e-05      7.88254     -178.546 
2.24208e-05      4.20076     -166.228 
-2.23265e-05      7.72000      180.000 
1.12838e-05      9.07083      157.166 
-3.34113e-05      7.12101      166.354 
1.12137e-05      6.79412      169.484 
-1.12025e-05      3.06751      167.957 
-1.11989e-05      1.64195      177.207 
2.22095e-05      6.68048      179.314 
-1.11753e-05      3.56808     -176.143 
-1.11430e-05      5.42380      165.041 
-2.21472e-05     0.468188      160.017 
1.11591e-05      9.18825      165.117 
-1.10737e-05      5.13560      175.533 
1.10732e-05      7.56169      158.593 
-1.10412e-05      7.78069      166.321 
-1.10233e-05      1.60200      177.138 
-1.10172e-05      3.56561     -176.785 
1.10010e-05      4.06369     -159.246 
1.09931e-05      8.12158      164.869 
