! Center RA: 04 33 11.09553,  Dec: +05 21 15.61921 (2000.0)
! Tentative model.
! Flux (Jy) Radius (mas)  Theta (deg)  Major FWHM (mas)  Axial ratio   Phi (deg) T \
! Freq (Hz)     SpecIndex
0.00644450      1.20333     -111.448 
0.00165764      1.00000     -106.260 
0.00230764      1.24065     -110.772 
0.00221957     0.974064     -109.179 
0.000832698      1.18929     -109.654 
0.000237334      1.01193     -108.435 
0.000654779      1.04995     -107.745 
0.00113864      1.22703     -109.026 
0.00130104     0.936376     -109.983 
0.000921780      1.08812     -107.103 
0.000837129     0.950789     -112.249 
-0.000931654     0.178885      153.435 
9.22788e-05      1.03846     -105.642 
0.000764412     0.520000     -112.620 
0.000450563      1.16482     -105.945 
0.000466255      1.31939     -104.036 
4.08382e-05      1.17644     -107.819 
7.45369e-05      1.25539     -112.479 
-0.000788646      11.0755     -117.768 
-0.000330519      11.1272     -116.012 
-0.00116909     0.329848      104.036 
-0.000669189     0.203961      168.690 
0.000273724      1.02840     -103.496 
0.000335789      10.2001     -112.845 
-0.000498835      10.5743     -117.728 
-0.000282001      11.0401     -117.865 
-0.000489028      4.09683     -117.316 
-0.000599077      10.6075     -119.852 
-0.000450418      11.3235     -116.656 
0.000361683      2.91671     -115.159 
-0.000267605     0.304631     -113.199 
6.02296e-05      2.93639     -114.121 
-0.000537705      11.1448     -116.197 
0.000115865      1.27122     -114.146 
-0.00162470     0.600000     -90.0000 
0.000611763      10.2157     -113.051 
0.00125527     0.536656     -116.565 
2.81067e-05      1.14543     -114.775 
0.000396056      1.15447     -104.036 
0.000317423      1.36821     -105.255 
0.000357378      2.95296     -114.829 
-0.000481013     0.291204     -105.945 
9.95005e-05      1.28810     -115.769 
0.000708713     0.144222     -123.690 
0.000322865      1.01980     -101.310 
0.000160715      1.23483     -114.905 
-0.000371488      3.60200     -119.982 
0.000319305      2.86356     -118.355 
-4.27130e-05      4.07863     -116.816 
-0.000381322      2.55625     -110.136 
-4.22350e-05      3.95535     -118.379 
-0.000151597      11.0569     -117.585 
0.000197691      1.25220     -116.565 
-2.01007e-05      4.00719     -116.053 
-0.000190119     0.417612     -163.301 
-0.000361123     0.243310      170.538 
-8.77785e-05      3.93650     -117.867 
-0.000258696      3.95373     -115.787 
-0.000142947      4.13241     -117.061 
0.000143660      10.8039     -113.338 
0.000212077      10.9354     -112.813 
0.000184944      4.31147     -115.852 
0.000279490      10.2314     -113.257 
0.000141819      2.93394     -115.866 
-0.000292673      10.5571     -110.632 
-6.22806e-05     0.268328     -116.565 
-0.000210060      3.18823     -113.671 
0.000247739      10.9510     -113.006 
-0.000104266     0.288444     -123.690 
0.000176943      3.68283     -98.7462 
0.000120060      1.19331     -103.570 
-9.14182e-05      1.57429     -117.216 
0.000117393      4.25018     -108.094 
3.09160e-05     0.832346     -125.218 
-0.000133587      3.82267     -103.309 
-1.54923e-05      3.93650     -115.263 
0.000145043      4.32906     -116.328 
0.000101766      1.01272     -99.0903 
0.000101659      1.19867     -115.710 
-0.000115037      1.61839     -129.987 
0.000156043     0.322490      29.7449 
7.08117e-05     0.809938     -122.905 
8.52198e-05      2.84478     -117.646 
-8.41232e-05      10.9273     -111.022 
-6.99269e-05      1.62825     -117.824 
5.53585e-05     0.400000      53.1301 
-5.50188e-05      3.81366     -102.724 
1.35731e-05      1.21655     -117.408 
1.34532e-05      1.40684     -104.826 
