! Center RA: 12 29 06.69973,  Dec: +02 03 08.59828 (2000.0)
! Established model.
! Flux (Jy) Radius (mas)  Theta (deg)  Major FWHM (mas)  Axial ratio   Phi (deg) T \
! Freq (Hz)     SpecIndex
   1.39067      0.00000      0.00000 
  0.355136     0.113137      45.0000 
  0.183122     0.178885      26.5651 
  0.642176     0.288444      33.6901 
  0.835033     0.113137     -135.000 
  0.107969     0.178885     -153.435 
  0.549860     0.288444     -146.310 
  0.439493     0.400000      36.8699 
  0.173412     0.512250     -141.340 
  0.121853     0.624820     -140.194 
 0.0305647     0.339411      45.0000 
  0.398661     0.452548      45.0000 
  0.283083     0.565685     -135.000 
  0.226737     0.678822     -135.000 
  0.150866     0.400000      53.1301 
  0.191797     0.624820     -129.806 
  0.137250     0.512250      51.3402 
 0.0414932     0.512250     -128.660 
  0.202502    0.0800000      90.0000 
  0.104810     0.400000     -126.870 
 0.0710405      1.58795     -139.086 
  0.132838     0.288444     -123.690 
 0.0593869     0.791960     -135.000 
  0.210307     0.178885      63.4349 
  0.124380     0.905097     -135.000 
 0.0906182     0.624820      50.1944 
  0.179727      1.64924     -140.906 
 0.0462393      1.01823     -135.000 
  0.168540     0.678822      45.0000 
 0.0591865      1.18929     -137.726 
 0.0786832     0.178885     -116.565 
 0.0252152      1.07629     -138.013 
0.00878118     0.565685      45.0000 
 0.0461355      1.76182     -140.528 
0.00781753    0.0800000     -90.0000 
 0.0306858      1.36235     -139.764 
 0.0373232      1.82428     -142.125 
 0.0248726      1.24964     -140.194 
  0.155076     0.288444      56.3099 
  0.122473     0.160000     -90.0000 
  0.108574      1.93659     -141.710 
 0.0843124     0.252982      71.5651 
  0.119602     0.791960      45.0000 
 0.0532006      1.42436     -141.843 
 0.0132025      1.98716     -139.899 
0.00718298      1.98071     -133.363 
 0.0203192      1.48809     -143.746 
 0.0389513     0.178885     -63.4349 
 0.0375220      2.03961     -131.820 
 0.0148005      9.82308     -139.955 
 0.0334923      9.77180     -140.315 
 0.0160119      1.88807     -143.616 
 0.0114674      1.55332     -145.491 
0.00493046     0.252982     -108.435 
0.00570974      1.37637     -144.462 
 0.0194805      3.22887     -138.013 
0.00574736      1.87446     -140.194 
 0.0184240     0.226274     -45.0000 
0.00256205      1.44222     -146.310 
 0.0252705      2.09380     -133.452 
0.00716854      1.50944     -147.995 
 0.0113206      9.88445     -140.254 
0.00467809      1.81373     -138.576 
0.00234835      1.61988     -147.095 
0.00461593      9.67041     -141.044 
 0.0114558     0.252982     -71.5651 
 0.0249223      22.3532     -121.984 
0.00645263     0.576888     -123.690 
0.00647692      1.57785     -149.534 
 0.0146015      9.62031     -141.415 
0.00837476      1.75454     -136.848 
 0.0248060      3.91346     -139.145 
0.00809842      3.28877     -138.945 
 0.0283217      9.93579     -139.899 
 0.0273009      1.64730     -150.945 
0.00399683     0.688186     -125.538 
0.00404931      22.3957     -122.157 
0.00848428      21.8617     -122.294 
0.00381542     0.737564      40.6013 
 0.0106264      1.81019     -135.000 
 0.0108785      9.68297     -141.710 
 0.0379294     0.288444     -56.3099 
0.00311439      21.7513     -122.229 
 0.0274594     0.644981     -119.745 
 0.0235952      4.24603     -132.709 
0.00576960      22.2854     -122.093 
0.00487072     0.536656     -116.565 
0.00571046     0.288444     -33.6901 
 0.0136223      24.0259     -128.511 
0.00297766      1.75454     -133.152 
 0.0130143      21.6837     -122.341 
 0.0209916      9.63361     -142.083 
0.00841015      21.9971     -122.072 
 0.0169125      3.85331     -131.634 
0.00343796      2.20690     -133.531 
0.00854063     0.850412      41.1859 
 0.0100441      22.4635     -122.049 
0.00849587      21.7941     -122.407 
0.00346806      24.8754     -128.602 
 0.0106817      3.40165     -138.814 
 0.0135963      22.1074     -122.137 
0.00629918     0.800000      36.8699 
0.00474171      3.80063     -139.268 
 0.0135028      24.2771     -128.041 
0.00500974      3.80063     -130.732 
0.00165581      16.5787     -122.386 
0.00478662      24.8255     -128.458 
0.00774742      16.5360     -122.152 
0.00326111      22.5738     -122.113 
 0.0205435      3.74037     -131.532 
0.00506268      9.99712     -140.194 
0.00944871      2.14960     -135.000 
0.00269727      3.85331     -138.366 
0.00153373      21.9293     -122.183 
 0.0175066      9.94609     -140.548 
0.00981298      9.96634     -137.603 
0.00150622      23.9633     -128.630 
0.00432770      16.6463     -122.239 
0.00579324      22.7268     -122.347 
 0.0200212      23.9134     -128.480 
0.00963135      24.8882     -128.343 
 0.0238368      9.69684     -142.374 
 0.0173485      15.7505     -120.864 
0.00409442      22.7697     -122.518 
0.00540065      3.74037     -138.468 
0.00277866      16.3834     -121.827 
0.00434057      15.8602     -120.964 
0.00371503      2.26274     -135.000 
0.00138870      22.8537     -123.579 
0.00138783      21.5733     -122.276 
0.00138526     0.865332      33.6901 
0.00527776      2.00000     -143.130 
0.00395369      1.71767     -152.241 
 0.0238629      4.30070     -133.493 
0.00629851      16.7141     -122.093 
0.00366199      22.1752     -122.027 
0.00515074      22.8980     -123.746 
0.00265758      16.2733     -121.737 
 0.0122058      21.6562     -124.160 
 0.0115599      16.8209     -120.590 
0.00628843      1.11427      21.0375 
0.00251112      21.4630     -122.209 
0.00251154      21.9045     -122.471 
 0.0117745      24.3401     -127.925 
 0.0114089      1.60997     -153.435 
0.00213282      22.2430     -121.918 
0.00343169      21.7012     -124.334 
0.00246396     0.407922     -101.310 
 0.0105355      16.2313     -121.497 
 0.0129081      1.95305     -145.008 
0.00480950      22.7944     -122.240 
0.00128087      21.9721     -122.359 
 0.0100773      10.0256     -137.911 
0.00361879      23.8509     -128.600 
0.00479096      3.51454     -138.691 
0.00424290      21.8371     -122.584 
0.00124327     0.505964     -108.435 
0.00123680      21.4204     -122.028 
0.00560864      10.0794     -137.573 
0.00601465      16.3414     -121.589 
0.00250760      24.7759     -128.313 
0.00778276      22.8762     -124.024 
0.00237804      9.74589     -142.001 
0.00623813      10.0587     -140.486 
0.00576883      22.7518     -122.069 
0.00444384      23.8010     -128.449 
0.00349570      21.3527     -122.142 
0.00755348      1.18929      19.6538 
0.00427245      8.80909     -140.528 
0.00113899      21.9476     -122.647 
0.00113907      21.5451     -124.103 
0.00886793      2.20690     -136.469 
0.00223989      24.2910     -127.776 
0.00327642      16.6717     -121.860 
0.00433241      22.2177     -122.202 
0.00751884      20.9682     -124.114 
0.00530273      16.4438     -124.695 
0.00538434      16.8899     -120.452 
0.00529690      9.89545     -140.906 
0.00217364      3.68087     -137.643 
0.00211446      21.3102     -121.960 
0.00390059      8.87099     -140.856 
0.00733325      10.2840     -140.366 
0.00869947      21.8785     -124.271 
0.00506339      16.9305     -120.685 
0.00315093      21.5004     -123.927 
0.00212324      3.45485     -137.816 
0.00108014      16.8618     -120.824 
0.00107350      22.0397     -122.248 
0.00106739     0.329848     -75.9638 
0.00368545      16.7397     -121.715 
0.00219477      21.2424     -122.074 
0.00106126      22.9211     -124.189 
0.00539537      9.58465     -142.461 
0.00299564      22.8196     -121.963 
0.00207455      24.3543     -127.660 
0.00104496      1.76182     -129.472 
0.00103403      15.7535     -123.609 
0.00327323      23.3649     -128.047 
0.00246258      3.62215     -136.790 
0.00101039      2.06456     -144.462 
0.00100942      17.6468     -122.033 
0.00100283      20.9021     -124.237 
0.00259852      22.9713     -125.074 
0.00254694      22.9254     -124.910 
0.00250059      23.0269     -125.954 
0.00246764      22.9455     -124.632 
0.00243674      21.9690     -124.616 
0.00240828      23.0568     -124.683 
0.00238714      22.6829     -125.091 
0.00236815      23.2163     -126.593 
0.00235506      21.6352     -124.454 
0.00457736      22.5215     -124.142 
0.00231758      22.0803     -124.669 
0.00420741      23.3282     -126.634 
0.00429474      21.5240     -124.399 
0.00226750      23.1226     -124.570 
0.00223695      23.2640     -126.752 
0.00379500      21.9236     -124.444 
 0.0105642      3.62039     -135.000 
0.00732818      21.4128     -124.343 
0.00523986      23.4568     -126.401 
0.00218039      22.5431     -123.859 
0.00504591      17.5975     -124.629 
0.00215987      22.1220     -124.092 
0.00215741      23.1843     -127.147 
0.00214189      21.1696     -124.531 
0.00354375      23.5687     -126.442 
0.00210608      23.0090     -123.801 
0.00209733      23.1056     -127.544 
0.00209843      17.5317     -124.778 
0.00208794      22.2327     -123.404 
0.00208468      3.67739     -134.119 
0.00603236      21.0584     -124.475 
0.00206607      21.8124     -124.389 
0.00407841      17.1978     -124.577 
0.00582759      24.2880     -126.832 
0.00415272      17.6633     -124.482 
0.00296837      22.4544     -123.520 
0.00204252      23.6000     -126.870 
0.00202602      23.1544     -127.701 
0.00202006      23.0980     -123.415 
0.00317411      15.6655     -123.122 
0.00198796      16.4683     -122.300 
0.00198232      23.0912     -127.823 
0.00389930      18.7966     -124.772 
0.00247144      22.1450     -123.059 
0.00371890      3.79051     -134.145 
0.00197089      23.7282     -126.638 
0.00196258      16.7567     -122.324 
0.00195385      22.8764     -123.301 
0.00927484      15.6219     -122.876 
0.00194607      17.2891     -125.014 
0.00915137      3.90364     -134.170 
0.00550188      21.5901     -124.279 
0.00272495      3.45114     -135.939 
0.00192224      16.3580     -122.213 
0.00192159      23.5691     -127.414 
0.00230440      22.1887     -123.232 
0.00729524      23.0281     -127.945 
0.00190947      17.7506     -123.977 
0.00902064      20.9925     -124.598 
0.00554982      24.4000     -126.870 
0.00189789      17.1777     -124.948 
0.00188673      23.2317     -123.198 
0.00187278      22.5441     -123.126 
0.00368531      16.2477     -122.125 
0.00706115      18.7511     -124.571 
0.00185943      16.8244     -122.179 
0.00349428     0.357771     -116.565 
0.00184631      17.5120     -125.142 
0.00184678      3.56427     -135.909 
0.00356163      22.0349     -124.498 
0.00183550      23.7934     -127.486 
0.00182923      22.7889     -122.965 
0.00353216      17.7060     -123.762 
0.00182175      3.96141     -133.363 
0.00281454      22.2121     -122.946 
0.00353382      17.2236     -125.166 
0.00836721      3.50907     -136.848 
0.00348674      16.7819     -121.947 
0.00178798      23.1880     -123.032 
0.00176994      23.4569     -127.378 
0.00348010      4.24302     -134.236 
0.00176726      16.2053     -121.885 
0.00494582      22.7404     -127.999 
0.00175640      17.6234     -125.205 
0.00175582      22.6783     -122.905 
0.00174803      16.8921     -122.034 
0.00174532      23.7799     -125.829 
0.00174071      22.0581     -122.710 
0.00172546      1.92666     -138.366 
0.00171887      24.4963     -127.169 
0.00224021      23.2551     -122.925 
0.00171526      16.0951     -121.794 
0.00299345      21.4789     -124.223 
0.00169292      23.9544     -127.674 
0.00169037      22.5677     -122.845 
0.00328739      22.6281     -127.964 
0.00325283     0.178885     -26.5651 
0.00168275      16.3155     -121.976 
0.00167938      24.5601     -127.057 
0.00167781      2.26557     -137.862 
0.00476034      15.5986     -123.283 
0.00167244      20.9472     -124.418 
0.00329783      17.2698     -125.383 
0.00617881      3.84832     -133.315 
0.00381587      23.2117     -122.759 
0.00166039      15.8068     -121.759 
0.00825361      23.3789     -127.772 
0.00327247      17.6409     -122.969 
0.00165026      22.3465     -122.723 
0.00164181      24.6421     -127.614 
0.00311453      14.7382     -122.137 
0.00163450      23.8916     -125.872 
0.00163175      16.1632     -121.645 
0.00320874      20.8360     -124.361 
0.00161935      22.8128     -122.687 
0.00160264      24.6084     -127.205 
0.00463716      22.4571     -122.784 
0.00307672      18.8170     -124.433 
0.00159298      24.1156     -127.858 
0.00442930      14.7810     -122.400 
0.00158473      16.2872     -124.393 
0.00310305      1.39943     -149.036 
0.00157561      17.6697     -125.417 
0.00305630      16.0531     -121.551 
 0.0149319      25.6031     -127.765 
0.00156544      17.7080     -122.829 
0.00306759      3.56786     -137.726 
0.00156594      21.3468     -124.464 
0.00303153      16.9179     -121.661 
0.00307636      23.8448     -125.716 
0.00155257      15.4878     -123.198 
0.00453668      9.39549     -141.569 
0.00165855      23.1685     -122.593 
0.00154522      24.6278     -127.875 
0.00154164      18.7058     -124.370 
0.00153879      2.43311     -136.332 
0.00153347      16.4514     -121.681 
0.00434220      20.7248     -124.303 
0.00294896      17.3163     -125.599 
0.00152811      25.5399     -127.875 
0.00428054      9.50789     -141.491 
0.00247566      23.1403     -127.979 
0.00151614      15.9431     -121.457 
0.00793673      21.3016     -124.287 
0.00518085      22.5651     -128.089 
0.00296375      17.6648     -122.611 
0.00291780      16.6296     -121.626 
0.00150495      21.8336     -124.098 
0.00987970      23.2790     -122.652 
0.00150147      17.4929     -125.507 
0.00296267      15.5548     -123.036 
0.00149336      24.8665     -127.681 
 0.0220327     0.737564      49.3987 
0.00790775      22.6774     -128.123 
0.00148449      24.2568     -126.416 
0.00430528      10.0319     -138.556 
0.00283138      23.3300     -127.617 
0.00146245      17.7162     -125.628 
0.00553814      1.46860     -150.642 
0.00145854      9.04566     -141.103 
0.00283960      9.55791     -141.116 
0.00145021      23.7982     -125.560 
0.00764435      14.6706     -122.303 
0.00283355      20.6136     -124.245 
0.00144383      16.2213     -124.552 
0.00281157      24.8387     -128.199 
0.00143888      2.60215     -135.000 
0.00143546      21.7674     -124.216 
0.00143665      16.9860     -121.519 
0.00143073      18.8831     -124.296 
0.00622284     0.240000     -90.0000 
0.00142189      22.5244     -122.674 
0.00141732      24.0503     -126.069 
0.00834477      20.2356     -123.879 
0.00141112      23.2526     -128.013 
0.00407494      16.1213     -121.403 
0.00140362      17.7753     -122.689 
0.00140195      24.9646     -127.972 
0.00270006      18.3053     -123.412 
0.00381928      23.7518     -125.403 
0.00138146      17.4279     -125.660 
0.00346401      21.2356     -124.408 
0.00137729      17.8859     -124.614 
0.00386860      2.27403     -140.711 
0.00504461      14.7135     -122.567 
0.00268629      18.8381     -124.095 
0.00135985      16.7661     -121.339 
0.00135967      9.60833     -140.744 
0.00743937      23.0773     -128.101 
0.00135233      17.3163     -121.781 
0.00134992      9.17074     -141.730 
0.00134620      24.0033     -125.915 
0.00134553      16.2668     -124.784 
0.00476142      2.71529     -135.000 
0.00565314      15.5867     -121.569 
0.00708095      4.41380     -133.531 
0.00133336      17.8859     -122.766 
0.00133043      25.0769     -128.003 
0.00132909      17.3629     -125.814 
0.00360968      16.2996     -121.350 
0.00257493      3.84832     -136.685 
0.00132175      8.75845     -140.932 
0.00132148      22.4139     -122.612 
0.00131730      24.1621     -126.111 
0.00131286      15.4651     -123.608 
0.00606994      23.3464     -122.546 
0.00131044      16.6978     -121.482 
0.00378464      9.65915     -140.377 
0.00204317      20.0136     -123.754 
0.00254383      6.33669     -136.023 
0.00254507      9.34597     -141.953 
0.00129737      17.8746     -125.895 
0.00352982      23.7055     -125.245 
0.00255725      8.64592     -141.009 
0.00960062      20.4576     -124.001 
0.00249610      17.2513     -125.754 
0.00367234      16.5878     -121.390 
0.00334159      22.9021     -128.191 
0.00809824      6.39250     -135.507 
0.00127497      17.1642     -121.468 
0.00248199      1.53883     -152.103 
0.00127461      15.5542     -124.099 
0.00248118      18.9044     -123.959 
0.00126979      25.0634     -128.260 
0.00569499      24.2739     -126.152 
0.00424527      19.9026     -123.690 
0.00245553      17.9518     -124.469 
0.00536153      23.3157     -127.892 
0.00469470      16.3125     -125.015 
0.00243955      18.4162     -123.483 
 0.0154964      5.54487     -136.169 
0.00125251      21.4340     -124.046 
0.00235919      22.7898     -128.157 
0.00360960      17.1226     -121.239 
0.00310298      15.6549     -121.416 
0.00241895      1.36000     -151.928 
0.00124231      21.7697     -122.697 
0.00123832      16.4096     -121.443 
0.00123561      22.2913     -127.857 
0.00476443      8.59581     -141.423 
0.00123307      17.8098     -126.046 
0.00451706      9.72091     -140.677 
0.00122714      17.9964     -122.842 
0.00122770      25.0006     -128.373 
0.00122768      21.1244     -124.352 
0.00122603      15.4220     -124.432 
0.00214112      24.3212     -126.304 
0.00122076      22.3708     -122.440 
0.00229605      9.40910     -142.253 
0.00120307      15.7916     -121.113 
0.00344156      25.1130     -128.403 
0.00119120      22.4036     -127.893 
0.00234713      10.1613     -139.790 
0.00118876      21.3678     -124.166 
0.00118893      22.8372     -122.410 
0.00347766      15.3560     -124.601 
0.00799508      1.90830     -146.976 
0.00629929      3.90692     -132.510 
0.00945460      10.0205     -137.265 
0.00798158      19.8361     -123.818 
0.00232335      23.3035     -122.381 
0.00116822      9.23368     -142.038 
0.00116939      17.9216     -126.103 
0.00116587      21.7459     -122.989 
0.00329653      3.90692     -137.490 
0.00437743      18.9708     -123.824 
0.00323719      2.28806     -143.531 
0.00114991      17.9532     -122.628 
0.00739880      1.43108     -153.435 
0.00437537      16.4779     -121.298 
0.00114070      9.57062     -141.789 
0.00454805     0.688186      54.4623 
0.00221776      17.2981     -125.969 
0.00368574      22.0179     -127.619 
0.00113601      18.3722     -123.275 
0.00630376      25.7154     -127.797 
0.00113379      8.62517     -139.514 
0.00208519      4.35908     -132.769 
0.00112893      21.7766     -121.938 
0.00112891      16.0798     -121.159 
0.00405083      10.1098     -140.136 
0.00833910      10.5515     -130.696 
0.00726657      20.3466     -123.940 
0.00220865      17.8570     -126.254 
0.00328013      8.54616     -141.843 
0.00112168      17.0127     -121.149 
0.00112278      25.0503     -128.517 
0.00327811      23.4139     -122.441 
0.00111174      9.29688     -142.341 
0.00111068      21.7895     -123.165 
0.00111024      6.28548     -137.579 
0.00110497      15.4016     -124.846 
0.00210031      17.9972     -124.679 
0.00216528      14.6225     -123.168 
0.00109735      17.0813     -121.010 
0.00109443      15.8876     -124.330 
0.00109196      23.3449     -126.359 
0.00210014      21.8445     -121.827 
0.00206231      20.5687     -124.061 
0.00108801     0.644981     -150.255 
0.00107694      23.4911     -127.807 
0.00107844      17.7998     -122.333 
0.00507149      14.6958     -121.873 
0.00414152      10.6123     -130.414 
0.00205386      21.9126     -121.717 
0.00107191      2.82843     -135.000 
0.00306451      23.5244     -122.501 
0.00817674      8.56448     -139.167 
0.00312364      25.1628     -128.546 
0.00486961      6.29158     -138.608 
0.00221945      18.2177     -122.992 
0.00206594      21.6788     -123.104 
0.00305295      24.2268     -126.000 
0.00152774      17.1911     -121.101 
0.00105820      22.3687     -124.656 
0.00119452      15.5787     -122.629 
0.00207410      20.3020     -123.753 
0.00397823      6.44881     -135.000 
0.00399743      9.47249     -142.549 
0.00105184      15.2903     -124.771 
0.00359645      19.7697     -123.947 
0.00105057      23.5403     -127.960 
0.00104454      16.9715     -120.917 
0.00104431      17.9689     -126.309 
0.00495115      8.56037     -142.595 
0.00104067      2.33649     -141.953 
 0.0100213      19.0818     -123.890 
0.00290516     0.609262     -156.801 
0.00204183      15.7232     -121.264 
0.00103152      21.5450     -123.336 
0.00197392      17.3452     -126.183 
0.00103069      23.3711     -122.276 
0.00386556      20.0000     -126.870 
0.00469478      14.5556     -123.341 
0.00200919      18.0637     -122.705 
0.00376484      16.5463     -121.154 
0.00102354      21.9057     -127.581 
0.00185493      21.8025     -121.649 
0.00291796      15.4475     -125.089 
0.00101876      18.6462     -125.395 
0.00101905      23.6595     -125.087 
0.00280745      16.4701     -125.311 
0.00197623      17.3009     -121.191 
0.00196878      23.3800     -125.811 
0.00100133      15.9329     -124.568 
0.00189764      17.0402     -120.779 
0.000995215      16.3680     -121.204 
0.000993000      20.1911     -123.690 
0.00380799      15.3360     -125.017 
0.000990498     0.715542     -153.435 
0.00183057      24.9379     -128.488 
0.000987527      16.7931     -120.964 
0.000980190      21.9546     -127.747 
0.00368071      17.9045     -126.460 
0.00443702      23.4280     -127.926 
0.000977741      16.2581     -121.109 
0.00190442      23.5678     -124.769 
0.00283914      25.2752     -128.575 
0.000966707      21.6352     -122.926 
0.000965573      14.5997     -123.603 
0.00457599      23.5919     -122.397 
0.000961121      16.3586     -125.245 
0.000961048      6.23179     -138.122 
0.000958154      18.0630     -124.535 
0.000955660      22.1328     -121.852 
0.000949019      21.6813     -127.504 
0.000948404      13.7809     -122.675 
0.00184528      21.5681     -123.042 
0.00527289      25.8276     -127.828 
0.00187410      10.6733     -130.135 
0.00746619      1.50306     -154.799 
0.00904891      8.49696     -142.267 
0.00180067      2.65932     -133.781 
0.000939201      10.4910     -130.980 
0.00267212      16.4364     -121.059 
0.000936754      22.3233     -124.487 
0.000935015      17.6726     -121.675 
0.00181940      21.8706     -121.539 
0.00209644      18.1743     -122.781 
0.00179179      22.1791     -127.821 
0.000927448      14.7638     -121.709 
0.00279984      19.7034     -124.077 
0.00577485      21.3302     -127.687 
0.00487906      17.1499     -120.872 
0.000921766      21.2567     -124.109 
0.00267044      13.7572     -123.136 
0.00555654      2.35287     -144.689 
0.00442804      10.4307     -131.269 
0.000917435      18.6926     -125.595 
0.00481684      6.39250     -134.493 
0.00341554      21.5246     -122.863 
0.00180105      10.7861     -130.186 
0.00377317      10.1335     -137.239 
0.000906229      22.9977     -121.921 
0.00175217      13.8243     -122.954 
0.00261920      17.5207     -121.368 
0.00175754      1.77629     -125.838 
0.00254944      17.2807     -126.339 
0.000900905      24.2916     -125.889 
0.000901612      6.23897     -139.160 
0.000899512      21.7301     -127.671 
0.000898154      9.36034     -142.640 
0.00343986      25.3876     -128.603 
0.000895818      16.0897     -124.875 
0.000891806      23.3622     -126.085 
0.000890849      18.5810     -125.538 
0.00181609      15.4936     -125.331 
0.000890019      20.1246     -123.816 
0.00427466      12.3755     -120.710 
0.00173094      4.02631     -139.028 
0.000885649      17.9778     -122.276 
0.000881691      23.6336     -124.658 
0.00171756      15.0521     -121.747 
0.00412444      10.8473     -129.914 
0.00290157      10.1880     -136.909 
0.00350647      19.5923     -124.015 
0.00172575      6.29971     -139.635 
0.000874502      4.47214     -132.825 
0.000874971      14.5857     -121.772 
0.00401438      23.7023     -122.456 
0.00252120      15.5608     -121.974 
0.000869790      21.9806     -121.608 
0.00250203      6.44981     -133.995 
0.00218118      11.1341     -129.753 
0.000866547      24.3385     -126.041 
0.00139946      19.1928     -123.955 
0.000862915      22.9555     -121.751 
0.000862867      9.71037     -140.013 
0.000859650      22.4345     -124.540 
0.00555333      15.3821     -125.261 
0.00713061      16.9994     -120.548 
0.000855467      18.2656     -125.013 
0.000855097      21.5011     -123.158 
0.000852784      9.24822     -142.734 
0.00564002      11.3887     -121.792 
0.00164178     0.683520     -159.444 
0.000848967      24.4330     -126.345 
0.000843730      23.1758     -121.880 
0.00644371      11.2468     -129.806 
0.00521044      19.5261     -124.146 
0.00165745      23.9676     -124.804 
0.00233281      10.7346     -129.860 
0.00165234      6.67892     -133.059 
0.000836677      18.7044     -126.478 
0.00164368      13.7344     -123.598 
0.000833857      2.71765     -132.614 
0.00165316      10.4837     -131.597 
0.00161691      20.1120     -126.915 
0.000828359      23.0144     -128.224 
0.000826660      9.42405     -142.936 
0.000826708      17.8402     -126.613 
0.00114487      23.4269     -125.970 
0.00314538      17.9352     -122.060 
0.00236348      4.41814     -132.064 
0.000823946      16.2471     -125.177 
0.000822422     0.754718     -122.005 
0.00161297      14.6120     -121.340 
0.000821042      21.3230     -123.988 
0.00953528      21.2669     -127.818 
0.000819792      16.6148     -121.011 
0.000815681      2.40000     -143.130 
0.000814500      16.1483     -121.012 
0.000814199      23.0236     -121.647 
0.00416747      8.61701     -138.764 
0.000813594      22.3405     -128.019 
0.00235885      17.8880     -126.819 
0.000812209      20.6798     -124.120 
0.00237112      25.4376     -128.744 
0.00656834      10.0485     -139.844 
0.00298911      21.4575     -122.979 
0.000805428      18.6745     -125.937 
0.000804478      21.7606     -121.470 
0.00534134      1.97585     -148.241 
0.00408307      15.6287     -121.819 
0.000802586      23.9220     -124.647 
0.00158238      13.8915     -122.775 
0.000800404      24.5760     -126.795 
0.000800133      10.5369     -131.923 
0.000799521      6.95816     -134.534 
0.000798963      17.4792     -121.144 
0.00157790      12.3067     -120.900 
0.000795993      22.2008     -121.743 
0.000795364      21.8423     -127.709 
0.00225162      16.5050     -120.916 
0.00156476      6.35182     -139.086 
0.00155575      16.2933     -125.407 
0.00418824      10.3559     -136.565 
0.00639063      9.31201     -143.032 
0.00125391      23.4740     -126.128 
0.000788719      19.3488     -124.216 
0.000787152      2.60461     -132.510 
0.000786559      25.8768     -127.968 
0.000783932      22.8035     -121.515 
0.000783998      1.32424     -154.983 
0.000782958      10.6445     -132.563 
0.00150245      4.08705     -139.764 
0.00148861      22.4554     -124.256 
0.000779381      24.9254     -128.746 
0.00151666      16.3267     -120.964 
0.00150157      6.62456     -132.553 
0.00152455      13.6678     -123.783 
0.000773857      24.1707     -125.163 
0.000773967      1.71207     -127.405 
0.000773156      18.4694     -125.480 
0.00146761      22.7269     -128.282 
0.00163235      23.1337     -121.711 
0.000769395      14.9002     -121.386 
0.00201430      19.6372     -124.208 
0.00420977      5.48744     -135.591 
0.000769148      10.3781     -130.937 
0.00393609     0.715542     -116.565 
 0.0119482      12.3480     -121.218 
0.00218161      2.66413     -131.348 
0.000763639      17.7407     -121.540 
0.00147843      21.6924     -121.580 
0.00287896      24.5282     -126.646 
0.000761859      14.5437     -121.504 
0.000760817      23.6542     -124.389 
0.000757427      15.8749     -125.773 
0.000756772      6.79200     -133.091 
0.000755654      10.6952     -133.485 
0.00147772      17.3283     -126.552 
0.00148745      22.1588     -121.567 
0.00146184      11.4151     -121.239 
0.00146437      24.0789     -124.852 
0.000752417      15.0102     -121.487 
0.00287811      6.36088     -140.102 
0.00344178      25.9399     -127.859 
0.000750792      11.0214     -129.699 
0.00144568      20.1602     -127.097 
0.000749514      25.3753     -128.857 
0.000749417      21.2119     -123.930 
0.000746945      22.8717     -121.411 
0.000744843      18.7521     -126.674 
0.000744379      22.8393     -128.315 
0.00210500      17.5891     -121.232 
-0.00412151      16.0691     -136.210 
0.000741750      10.3868     -130.314 
0.00489690      11.4310     -122.133 
0.00146004      13.9349     -123.051 
0.000736365      21.6243     -121.691 
0.00209678      23.5212     -126.285 
0.00535023      14.5705     -121.072 
0.00145884      10.7504     -133.794 
0.00144827      7.18443     -135.451 
0.00280258      17.8240     -126.973 
0.00283789      25.4878     -128.884 
0.000732117      15.9866     -125.838 
0.00326253      24.0333     -124.695 
0.000729678      3.39411     -135.000 
0.000729036     0.861626     -158.199 
0.000727661      24.9755     -128.889 
0.00499166      1.66469     -125.218 
0.00126794      11.0831     -129.435 
0.000723236      22.0036     -127.912 
0.00125441      17.3283     -120.828 
0.00137116      21.4813     -122.684 
0.00134428      23.5858     -126.170 
0.00282329      15.9288     -120.816 
0.000718282      23.7453     -122.619 
0.000716631      14.4448     -123.250 
0.000714887      10.6835     -129.531 
0.000714719      18.3770     -125.074 
0.00411332      1.39714     -156.371 
0.00137803      16.5737     -120.774 
0.000712266      10.2740     -130.263 
0.00204494      2.55123     -131.186 
0.00206795      13.7125     -124.061 
0.00206591      23.0917     -121.542 
0.00895033      8.43384     -141.934 
0.00139973      6.57072     -132.039 
0.00327342      11.3083     -129.546 
0.00205446      16.3398     -125.636 
0.00136661      17.9361     -127.023 
0.00336458      10.8059     -134.100 
0.000703316      22.1171     -121.390 
0.00137629      15.1202     -121.588 
0.000701376      10.9088     -129.644 
0.000698376      21.3904     -123.096 
0.00186672      4.30516     -131.987 
0.00261518      21.6506     -121.399 
0.000696200      15.5400     -125.572 
0.00136010      19.4599     -124.278 
0.00137988      23.8766     -124.489 
0.000694038      10.2225     -129.920 
0.00133287      17.3760     -126.764 
0.00196694      3.33802     -134.029 
0.00136739      17.8928     -121.842 
0.000689837      14.0021     -122.873 
0.00134724      18.8000     -126.870 
0.000687968      21.2783     -123.810 
0.000687829      25.0258     -129.032 
0.00512437      2.41859     -145.784 
0.000686812      7.24166     -135.895 
0.000686950      22.6104     -121.103 
0.000685852      10.7961     -129.588 
0.00433018     0.357771     -26.5651 
0.000680414      22.1854     -121.283 
0.000678887      16.3953     -120.820 
0.00468889      23.6331     -126.327 
0.00196378      16.0336     -126.069 
0.00195943      23.8127     -122.515 
0.00129130      10.3011     -136.888 
0.000675946      11.4019     -120.343 
0.000676044      21.8914     -127.875 
0.000674889      10.2840     -129.634 
0.000674642      21.5824     -121.510 
0.00344813      7.35478     -135.881 
0.000671850      23.0640     -128.380 
0.000670907      26.2420     -127.569 
0.00194060      6.42246     -140.560 
0.00234245      10.9705     -129.378 
0.00257871      6.63035     -131.576 
0.00126118      8.23534     -140.123 
0.000665721      25.0763     -129.174 
0.000664167      10.0587     -129.514 
0.00251161      1.57582     -156.038 
0.00372988      25.5381     -129.024 
0.00128887      19.9471     -123.881 
0.00128040      14.0456     -123.147 
0.00192765      22.1440     -121.106 
0.00274171      21.3792     -127.856 
0.000654803      10.7453     -129.259 
0.00240081      15.0785     -121.329 
0.000986294      20.2722     -127.141 
0.000650089      22.5692     -120.929 
0.000649673      18.3312     -124.869 
0.00189948      25.0143     -129.289 
0.00127559      10.9199     -129.053 
0.00247296      13.6463     -124.249 
0.00185212      2.61197     -130.030 
0.00491777      11.4310     -119.795 
0.00185803      17.8723     -127.178 
0.000645595      10.0080     -129.161 
0.00123279      21.1674     -123.750 
0.00634253      16.4641     -120.677 
0.000643524      9.87474     -139.600 
0.00125938      22.7765     -128.440 
0.00517539      15.4284     -125.503 
0.00248867      11.4064     -122.687 
0.00309905      9.64821     -142.750 
0.000639363      10.4077     -129.072 
0.000639650      17.6990     -121.319 
0.000639306      23.6091     -124.229 
0.00364237      7.46790     -135.868 
0.000638435      13.9787     -123.326 
0.000636258      26.3541     -127.600 
0.00185617      23.0500     -121.373 
0.000635584      11.3701     -129.289 
0.000633518      9.84520     -128.733 
0.000632574      24.4805     -126.495 
0.00125769      10.8635     -133.807 
0.00122898      6.33568     -135.000 
0.00180871      17.4380     -120.919 
0.000631667      22.4986     -123.690 
0.000705194      17.5361     -127.027 
0.00240026      4.14845     -140.477 
0.000627481     0.758947     -161.565 
0.000626331      7.52553     -136.292 
0.000623783      21.5546     -127.763 
0.000621585      9.79535     -128.367 
0.000621719      23.3020     -128.168 
0.000619348      16.3218     -126.027 
0.00179695      10.4344     -125.640 
0.000617218      21.4140     -122.800 
0.00235736      17.9843     -127.227 
0.000616531      21.2038     -127.951 
0.00119682      26.4663     -127.632 
0.00168107      22.5282     -120.754 
0.00231315      17.8508     -121.624 
0.00115851      18.7843     -127.212 
-0.0472415      2.17624      17.1027 
0.00239322      9.47451     -123.288 
0.000610289      10.2450     -128.660 
0.00186490      16.8495     -120.217 
0.00179348      22.1027     -120.928 
0.00280836      23.3120     -126.909 
0.00343077      6.57754     -131.055 
0.00272788      23.9879     -124.538 
0.000608672      9.98751     -139.548 
0.00402430      10.8617     -134.403 
0.00287279      6.48444     -141.009 
0.00117483      23.6976     -126.212 
0.000605346      20.4328     -127.363 
0.00173282      21.6090     -121.218 
0.00277537      17.4240     -126.975 
0.00176073      26.5120     -126.904 
0.00172852      25.0650     -129.431 
0.00323351     0.835225     -163.301 
0.000602433      14.0895     -123.419 
0.000601919      21.3708     -122.619 
0.00117290      3.28293     -133.025 
0.000600741      16.3689     -126.254 
0.000599537      6.51742     -131.517 
0.000597685      10.8579     -129.319 
0.00372563     0.754718      57.9946 
0.00156170      16.9589     -120.315 
0.00625116      14.5294     -120.801 
0.00112910      7.41069     -135.437 
0.00116757      22.4595     -120.859 
0.00117616      24.9524     -129.406 
0.00116668      11.2967     -127.519 
0.000590903      18.8481     -127.064 
0.000591263      13.8236     -124.150 
0.00115507      25.9542     -127.612 
0.000587189      16.3045     -126.420 
0.000587380      23.3515     -128.323 
0.000585348      18.2402     -124.457 
0.00167482      25.4759     -129.137 
0.00129089      21.4382     -122.504 
0.00204492      11.3120     -126.951 
0.000705594      23.0085     -121.203 
0.00114631      21.4424     -127.725 
0.000583251      10.0201     -128.517 
0.00522881      20.3914     -124.126 
0.00112928      23.7698     -122.353 
0.00405841      9.20000     -143.130 
0.00222316      2.49928     -129.806 
0.00380126      11.4425     -120.689 
0.00155146      22.8264     -128.597 
0.00556637      9.43084     -122.881 
0.00788094     0.329848      75.9638 
0.00108105      4.36495     -131.285 
0.00114607      8.55701     -138.411 
0.000578283      14.0228     -123.599 
0.000576077      9.85819     -128.079 
0.00646538      26.5282     -126.663 
0.00111505      13.5802     -124.439 
0.00325430      23.1183     -121.270 
0.000571588      13.8573     -121.304 
0.000570335      16.0808     -126.300 
0.00164764      21.6775     -121.109 
0.00103220      20.5449     -127.405 
0.00149300      16.5329     -120.536 
0.000566891      22.0617     -120.750 
0.00349078      8.37100     -141.597 
0.00719333      21.3953     -122.323 
0.00320142      9.40774     -123.555 
0.000561405      16.4808     -126.314 
0.00153336      19.4150     -124.083 
0.00281118      25.6506     -129.051 
0.000560654      22.3498     -120.788 
0.00213040      25.0033     -129.547 
0.000560465      11.0345     -133.531 
0.000558142      20.0481     -127.053 
0.00400789      10.8047     -134.700 
0.00184502      10.4995     -125.385 
0.000555929      19.0373     -123.690 
0.00245570      17.8086     -127.333 
0.000555868      22.9388     -128.629 
0.00160770      13.8159     -121.021 
0.00752179      4.21046     -141.170 
0.00104152      17.2874     -120.600 
0.000552814      18.3062     -124.315 
0.000553027      16.4164     -126.479 
0.00109362      21.9930     -120.857 
0.000551844      13.4690     -124.351 
0.00162526      9.97052     -128.157 
0.00106113      21.1230     -123.570 
0.00237278      18.0965     -127.275 
0.000549147      23.2888     -128.445 
0.000547178      14.1338     -123.690 
0.00204708      8.17411     -139.764 
0.00105387      26.5297     -127.526 
0.000543899      10.2980     -136.259 
0.000543599      16.1283     -126.529 
0.00107067      10.3420     -124.919 
0.00155065      3.22887     -131.987 
0.000540002      17.5844     -127.235 
0.00294418      23.9426     -124.380 
0.00413365      8.55102     -137.654 
0.00146163      2.56125     -128.660 
0.00254968      17.8089     -121.405 
0.000535184      11.2482     -127.196 
0.00154628      22.4186     -120.683 
0.00244928      16.4641     -126.703 
0.00156621      11.0926     -133.247 
0.000533929      20.6570     -127.447 
0.00298747      6.63807     -130.601 
0.000532445      6.33669     -133.977 
0.000531706      13.5143     -124.631 
0.00521055     0.683520     -110.556 
0.000530867      25.1159     -129.572 
0.000529256      22.2282     -127.983 
0.00102908      21.9521     -120.677 
0.000527250      26.0176     -127.504 
0.00151635      16.7804     -120.355 
0.00154736      15.4750     -125.744 
0.000526045      13.9563     -123.781 
0.00103130      23.3386     -128.598 
0.00203413      6.54682     -141.450 
0.000524374      16.1072     -120.769 
0.000867608      7.29931     -133.668 
0.000521903      18.9264     -123.623 
0.00809234      8.44824     -142.696 
0.00551975      11.2641     -126.626 
0.000519461      16.3521     -126.646 
0.00317090      1.61988     -122.905 
0.00234303      6.39850     -132.466 
0.000519815      11.4738     -122.471 
0.00150901      13.4030     -124.544 
0.00147873      18.8964     -127.258 
0.000517583      25.4029     -129.505 
0.00292376      22.1305     -120.644 
0.000516841      1.93494     -150.255 
0.00101106      10.0291     -123.944 
0.00133437      21.3278     -122.438 
0.00188273      16.5631     -125.763 
0.000513176      24.6739     -126.164 
0.00101643      12.9800     -123.690 
0.00278259      17.9207     -127.381 
0.000511655      9.52302     -125.426 
0.000511882      5.43058     -135.000 
0.000964751      18.2612     -124.108 
0.00320594      2.44884     -128.367 
0.000507678      3.91346     -130.855 
0.00300291      18.2086     -127.323 
0.00194485      21.6363     -120.927 
0.000506769      17.1778     -120.506 
0.00320049      15.3633     -125.676 
0.000505487      10.0335     -127.875 
0.00118845      17.4723     -127.185 
0.000502368      10.4111     -136.245 
0.00193183      25.3412     -129.620 
0.00161226      18.2849     -122.856 
0.00354666      13.7749     -120.735 
0.00366499      9.76033     -142.660 
0.000500107      20.3206     -127.321 
0.00301780      7.30282     -132.780 
0.000499242      11.4568     -121.581 
0.000979144      26.0326     -127.257 
0.00268714      15.6967     -121.665 
0.00593773      22.5970     -120.651 
0.00139478      25.8253     -128.965 
0.00142016      12.4039     -120.203 
0.000496324      23.7271     -122.190 
0.00143184      11.1476     -133.546 
0.00112981      12.8691     -123.591 
0.000957605      16.1760     -120.624 
0.000494199      24.8907     -129.523 
0.000490905      17.3120     -126.923 
0.000490862      22.7639     -128.723 
0.000490674      10.4534     -125.028 
0.000955842      1.89652     -152.354 
0.000489857      18.2723     -127.171 
0.00511261      23.0769     -121.100 
0.000948893      17.9608     -121.708 
0.000899515      19.6587     -123.884 
0.00273742      8.83086     -123.546 
0.000483881      12.3348     -120.390 
0.00116686      24.6267     -126.014 
0.00313600      8.49207     -137.291 
0.00187061      6.49726     -142.001 
0.000482569      9.91806     -123.818 
0.000954010      24.9417     -129.664 
0.000925369     0.715542      63.4349 
0.00303930      4.25206     -131.186 
0.00500183      1.21852     -156.801 
0.00181965      13.0245     -123.983 
0.000478747      23.3886     -128.752 
0.000475279      26.4176     -127.495 
0.000475475      22.1159     -127.948 
0.000475488      9.47688     -125.032 
0.00136852      11.2057     -133.264 
0.000475947      12.5141     -123.792 
0.000473652      8.43042     -136.153 
0.00520818      10.0851     -131.785 
0.00180040      17.3602     -127.134 
0.000926130      21.7049     -120.819 
0.00269246      2.48516     -146.821 
0.000470520      18.0030     -121.924 
0.00221380      13.4486     -124.824 
0.000466246      19.7252     -123.755 
0.00212050      17.3970     -120.693 
0.000465453      9.98463     -123.563 
0.00512914      22.4874     -120.579 
0.000463646      18.9931     -123.489 
0.000463228      23.3263     -128.875 
0.000463233      31.3790     -126.081 
0.000899160      16.7114     -120.493 
0.000461781      8.37214     -135.000 
0.00164073      18.3843     -127.219 
0.00191893      12.9135     -123.887 
0.00208743      23.7622     -126.098 
0.000893096      3.17591     -130.914 
0.00177300      24.8290     -129.640 
0.000891010      12.3814     -124.203 
0.000458299      7.24872     -132.316 
0.000458439      21.3935     -127.556 
0.00235700      23.7525     -121.924 
0.000887105      25.9842     -127.117 
0.00398271      11.4612     -119.249 
0.00133177      6.60957     -141.882 
0.000456804     0.339411     -45.0000 
0.00203719      14.1783     -123.959 
0.000455831      21.2603     -122.554 
0.00301053      25.3923     -129.759 
0.000455229      16.0164     -126.469 
0.000453843      25.7128     -128.938 
0.000454186      9.38595     -124.232 
0.00152020      11.2000     -126.870 
0.00128978     0.936376     -160.017 
0.00257546      8.31577     -134.610 
0.00514706      31.3319     -125.963 
0.00105608      8.11320     -139.399 
0.000451479      14.5982     -120.641 
0.00363384      16.3545     -120.579 
0.00187784      6.58629     -130.073 
0.000449356      9.87376     -123.433 
0.000866381      26.0963     -127.151 
0.000876886      17.9189     -121.490 
0.000447005      22.8764     -128.754 
0.000446603      10.8612     -135.000 
0.000796013      24.5798     -125.863 
0.000856771      12.4926     -124.301 
0.000882010      22.0209     -120.571 
0.000883801      21.4570     -127.425 
0.00161103      17.2186     -120.735 
0.00211511      9.38765     -122.471 
0.000443377      18.6168     -123.075 
0.00126519      21.5953     -120.745 
0.000442270      11.3188     -133.282 
0.00335029      14.4886     -120.530 
0.000441492      23.4388     -128.904 
0.00340068      10.1713     -140.425 
0.000871091      12.4332     -119.699 
0.000441273      9.97212     -131.748 
0.000440354      24.0087     -124.273 
0.000439719      17.7674     -121.185 
0.000439729      21.1020     -123.088 
0.000662435      22.3090     -120.611 
0.000849815      26.5785     -127.663 
0.000438200      10.2512     -124.186 
0.000436305      10.9179     -134.703 
0.00163503      23.3924     -126.517 
0.00197774     0.357771     -63.4349 
0.00160870      2.00479     -151.390 
0.00696577      18.9450     -127.451 
0.00123547      18.2165     -123.899 
0.00245695      21.5057     -122.389 
0.000433549      10.0319     -131.444 
0.00304403      23.7103     -121.759 
0.000432398      16.5760     -126.759 
0.00236458      11.4319     -133.299 
0.000430102      9.36376     -123.147 
0.00239356      21.6641     -120.637 
0.00260443      14.5576     -120.370 
0.000517391      23.2283     -121.336 
0.000429157      20.2085     -127.278 
0.000837906      9.94062     -123.179 
0.00318332      6.56049     -142.431 
0.000839881      23.4891     -129.056 
0.00411464      22.1994     -120.539 
0.00158711      10.9179     -135.297 
0.00122500      22.0668     -127.784 
0.00150565      15.7649     -121.512 
0.00173396      20.4130     -123.815 
0.00114822      16.2449     -120.480 
0.000833756      2.46447     -144.246 
0.00598985      26.5924     -126.560 
0.00240766      17.8773     -121.272 
0.000714802      21.2850     -122.256 
0.000422605      22.8140     -128.879 
0.00157378      18.3207     -127.370 
0.000830938      11.1957     -129.491 
0.000421945      16.5120     -126.925 
0.00297822      25.9378     -128.991 
0.00164103      9.91903     -131.403 
0.000420356      12.4266     -124.509 
0.000419956      20.9913     -123.024 
0.00232683      8.81090     -122.391 
0.00153438      2.52982     -145.305 
0.000419251      16.0641     -126.699 
0.00296262      13.7342     -120.449 
0.00250499      11.1522     -126.541 
0.00602580      30.3268     -125.661 
0.000416147      25.2796     -129.736 
0.000789479      16.6100     -125.987 
0.000820225      12.3938     -119.378 
0.000414902      24.6037     -129.591 
0.000415122      6.69901     -130.156 
0.00259445      2.51205     -127.235 
0.00625528      19.5521     -126.682 
0.00114786      21.2174     -122.372 
0.000809747      17.8572     -127.537 
0.000412588      8.85402     -122.829 
0.00118416      17.2481     -127.082 
0.000410677      15.1469     -121.171 
0.000902856      24.4864     -125.559 
0.000410349      21.4085     -127.255 
0.000409263      3.23679     -129.987 
0.00174801      10.0080     -140.839 
0.00194637      16.5602     -127.147 
0.00116738      6.45774     -131.987 
0.00155704      13.4944     -125.103 
0.000406673      22.8643     -129.036 
0.000793238      19.7917     -123.626 
0.000405475      11.3760     -126.709 
0.00195513      10.1272     -117.780 
0.000404432      24.7164     -129.616 
0.000967390      12.9583     -124.181 
0.00153397      26.0481     -127.011 
0.000403409      18.7275     -123.147 
0.00727957      1.31939      14.0362 
0.00209049      11.3738     -133.575 
0.00349232      6.64771     -129.629 
0.00325647      9.32026     -122.735 
0.000798259      21.3602     -127.084 
0.00219869      11.4925     -118.706 
0.00120093      17.4086     -127.344 
0.000612472      17.1090     -120.642 
0.00116712      10.9743     -135.000 
0.000785965      12.3607     -124.719 
0.00170756      23.8268     -125.985 
0.000765064      20.3843     -127.185 
0.000774412      9.82991     -123.043 
0.000771966      17.9872     -121.357 
0.000779242      23.0274     -129.219 
0.00294011      8.25978     -134.215 
0.000396580      22.0899     -120.466 
0.000780685      24.8801     -129.782 
0.000396419      18.5061     -123.003 
0.00498920      24.7563     -125.796 
0.000394476      8.78690     -123.111 
0.000784013      25.3308     -129.875 
0.000728904      19.4813     -123.951 
0.000767511      21.0192     -120.665 
0.000394017      23.4270     -129.179 
0.00107977      11.5522     -126.552 
0.000762012      26.7398     -127.830 
0.00186631      12.4636     -119.197 
0.000720045      24.1446     -124.743 
0.00411413      8.38475     -142.365 
0.00112133      13.0694     -124.274 
0.000767518      6.67269     -142.306 
0.000765859      21.3120     -126.913 
0.000816933      18.0329     -127.429 
0.000388131      3.18597     -128.884 
0.00253604      9.86631     -131.055 
0.000386633      23.5396     -129.207 
0.00345682      15.8331     -121.361 
0.000385430      16.6240     -126.980 
0.00104956      11.1450     -129.174 
0.000385081      21.1498     -122.488 
0.00178516      17.4196     -122.814 
0.00269391      23.6682     -121.595 
0.000745024      6.44832     -142.561 
0.00224680      9.71926     -122.905 
0.000383921      17.5067     -120.784 
0.000736746      21.2180     -127.648 
0.00214103      15.9521     -126.640 
0.00217695      25.4435     -129.898 
0.000381938      6.00000     -143.130 
0.000728823      11.2607     -133.561 
0.000734443      15.2154     -121.015 
0.00569804      1.11427     -158.962 
0.000380269      10.1297     -136.600 
0.000379962      12.6037     -124.396 
0.00138476      6.40450     -131.455 
0.00141169      11.6165     -126.317 
0.00376342      23.0357     -120.930 
0.00143529      24.5421     -129.710 
0.000376248      13.3830     -125.020 
0.00264146      4.19981     -130.365 
0.00545860      24.7096     -125.645 
0.000683720      2.57620     -143.842 
0.00139545      6.06419     -143.584 
0.000731675      24.9928     -129.806 
0.00138301     0.407922     -11.3099 
0.000373274      23.4776     -129.331 
0.00224826      30.3918     -125.573 
0.00281928      10.0902     -117.378 
0.000843984      7.63864     -136.273 
0.000719877      26.1601     -127.045 
0.00218445      10.9822     -128.790 
0.000732353      12.5378     -124.603 
0.00107755      21.2641     -126.741 
0.000369985      22.9654     -129.346 
0.000723090      19.7475     -123.433 
0.00304063      21.6234     -120.455 
0.00401771      17.9457     -121.139 
0.00102808      15.4101     -125.918 
0.000366200      21.0475     -120.366 
0.000365475      18.8822     -123.421 
0.000365154      24.1903     -124.899 
0.00255174      1.57785     -120.466 
0.00180759      9.78652     -122.651 
0.000364893      6.11202     -142.980 
0.000637889      23.1868     -121.167 
0.00139545      8.20731     -133.025 
0.000363783      23.0780     -129.373 
0.00138555      6.78492     -142.184 
0.000362438      20.4795     -123.690 
0.000715794      23.5902     -129.358 
0.00203923      17.2965     -127.294 
0.000361719      27.4401     -126.703 
0.000361341      17.8359     -121.052 
0.000692879      21.1746     -122.189 
0.00170720      16.6086     -127.367 
0.000360735      22.7066     -120.721 
0.00528177      18.1450     -127.476 
0.00328487      7.52383     -135.431 
0.000359137      2.51205     -142.765 
0.00137953      10.9749     -135.591 
0.000356625      15.9976     -120.669 
0.000703288      2.91204     -142.815 
0.000993295      16.6723     -127.200 
0.000701260      20.9785     -120.477 
0.00103596      13.5406     -125.380 
0.00374851      8.76831     -121.950 
0.000354280      21.5545     -120.563 
0.000353380      3.12410     -129.806 
0.000673197      12.2041     -124.315 
0.00230147      27.4880     -126.837 
0.000353353      23.0162     -129.500 
0.00365302      6.51202     -142.989 
0.000353024      10.7075     -119.055 
0.000690653      14.2231     -124.226 
0.000651119      9.95767     -141.196 
0.00149561      24.8213     -125.688 
0.000349918      13.1146     -124.563 
0.00180139      2.22423     -127.694 
0.000348839      11.5580     -117.629 
0.00219625      25.0441     -129.946 
0.000677739      12.6491     -124.695 
0.000348002      19.8143     -123.305 
0.000899247      8.05263     -139.028 
0.000346732      21.8570     -127.415 
0.00155883      13.8437     -120.566 
0.00481436     0.407922     -78.6901 
0.000345778      26.0000     -128.880 
0.000345390      23.1289     -129.526 
0.000536656      16.7217     -126.048 
0.00161899      25.5562     -129.920 
0.000634504      18.8383     -123.218 
0.00120318      17.4659     -120.559 
0.00256242      2.97617     -143.746 
0.00231378      24.9314     -129.923 
0.000921348      11.5450     -133.315 
0.00143668      13.0034     -124.472 
0.00125592      10.0702     -141.127 
0.00128749      4.27308     -141.843 
0.000340409      23.8975     -124.222 
0.000340685      21.2000     -126.870 
0.00191261      12.4247     -118.875 
0.00125958      3.13637     -127.747 
0.00130892      19.7036     -123.238 
0.00128533      21.0071     -120.178 
0.000339028      11.0310     -135.294 
0.00123632      11.4880     -126.790 
0.000337703      23.6410     -129.508 
0.000337851      26.0000     -126.870 
0.000667762      22.9546     -129.627 
0.00124911      7.35739     -133.238 
0.000337343      10.6688     -118.679 
0.000336981      12.4065     -125.022 
0.00255823      23.1455     -120.998 
0.00125146      22.2683     -120.434 
0.000333804      20.6835     -122.522 
0.00149330      23.6264     -121.430 
0.000589849      11.0403     -126.455 
0.000967661      21.9691     -127.454 
0.00117713      17.4631     -123.035 
0.00245375      9.80612     -131.362 
0.00181873      31.4437     -125.995 
0.00209446      24.7747     -125.538 
0.000647419      21.1692     -127.476 
0.00181346      20.9380     -120.288 
0.000921746      11.0322     -135.881 
0.000329074      11.5923     -117.096 
0.000510216      24.4295     -129.685 
0.000878423      11.0325     -129.114 
0.00213941      10.0536     -116.973 
0.000327199      26.9012     -127.995 
0.000327475      13.4290     -125.300 
0.000326409      23.2415     -129.553 
0.000325899     0.683520      69.4440 
0.00151797      21.2163     -126.567 
0.000642531      10.6307     -118.301 
0.00460509      13.8846     -120.851 
0.00497787      8.15294     -132.614 
0.000628111      16.6571     -126.209 
0.000641018      22.8930     -129.754 
0.000928707      26.0640     -126.764 
0.000640497      13.4754     -125.577 
0.000619626      17.5754     -120.651 
0.00518376      27.5043     -126.603 
0.000948353      11.4869     -133.589 
0.00170693      13.0488     -124.762 
0.00206169      6.96046     -142.472 
0.00165388      22.3778     -120.507 
0.000320106      16.0000     -126.870 
0.000319678      20.4964     -127.228 
0.00181172      11.0880     -135.585 
0.00149306      20.7083     -122.217 
0.000318896      2.07538     -152.447 
0.00303469      6.01704     -144.197 
0.000318752      23.8047     -129.682 
0.000869587      10.8000     -126.870 
0.000614142      25.4949     -130.036 
0.000630060      9.34495     -122.057 
0.000609557      16.7208     -127.418 
0.000609968      22.7754     -120.619 
0.000865541      26.0503     -129.017 
0.000817199      7.58103     -135.855 
0.000315098      12.7604     -124.786 
0.00147289      17.3451     -127.504 
0.00374406      24.3680     -129.806 
0.000870586      14.1571     -124.408 
0.00479557      23.6947     -121.329 
0.000610757      16.6573     -127.585 
0.00192063      9.98238     -117.181 
0.000614926      13.5871     -125.655 
0.00559956      11.5561     -116.742 
0.000311500      26.9505     -128.129 
0.000311273      3.02417     -142.524 
0.00109009      20.6657     -122.029 
0.000310869      23.1799     -129.679 
0.00141603      14.4481     -120.256 
0.000308813      15.8402     -126.581 
0.000308568      12.2494     -124.624 
0.00237260      22.6659     -120.548 
0.000904144      19.7269     -122.917 
0.000307522      10.5930     -117.920 
0.00836512     0.480000      0.00000 
0.000877906      23.9685     -129.855 
0.00118418      22.9442     -129.908 
0.000305258      11.3160     -133.854 
0.000305028      13.1602     -124.849 
0.00116077      21.9206     -127.288 
0.000303199      23.6753     -124.120 
0.000887681      9.27724     -122.320 
0.00144449      21.6924     -120.348 
0.00228119      18.0142     -121.007 
0.000593095      23.2925     -129.705 
0.00139897      14.5173     -120.097 
0.000302706      9.92129     -127.794 
0.00245061      26.1125     -128.907 
0.000301980      11.6641     -126.634 
0.000301690      10.6637     -117.719 
0.000846303      15.2984     -125.851 
0.00139141      20.4481     -127.049 
0.000299891      12.9375     -124.673 
0.00306748      15.8880     -126.812 
0.000299377      25.7011     -129.189 
0.000822703      11.0946     -128.853 
0.000298968      19.5477     -123.820 
0.00299901      6.59697     -129.094 
0.000565497      10.2961     -135.630 
0.00883188      1.39714      13.2405 
0.000582319      12.4990     -125.623 
0.000297617      23.6920     -129.657 
0.00219351      16.4234     -120.437 
0.00114708      20.6234     -121.840 
0.000296552      19.4880     -126.823 
0.00388392      13.5221     -125.853 
0.00184496      3.08804     -143.427 
0.00148897      27.0628     -128.157 
0.000568066      17.4572     -127.553 
0.000294132      10.5558     -117.536 
0.000847423      11.6000     -126.870 
0.00107878      2.46447     -125.754 
0.000824867      25.6076     -130.058 
0.00349494      6.62408     -142.853 
0.000566785      12.1592     -124.004 
0.000570432      11.5005     -119.597 
0.000289486      10.9760     -126.703 
0.000289448      17.2596     -120.964 
0.000559310      21.1206     -127.304 
0.000288783      16.5926     -126.373 
0.00156499      11.6000     -133.603 
0.000563505      12.3863     -118.551 
0.000842803      19.6598     -123.043 
0.000827857      4.22412     -142.696 
0.00136909      10.2331     -140.711 
0.00112438      25.6689     -129.943 
0.000564763      10.6268     -117.337 
0.000286722      16.5801     -128.142 
0.00152220      20.9670     -119.989 
0.00588703      28.6880     -126.838 
0.000285592      18.1743     -124.599 
0.000285411      22.3877     -123.633 
0.00104998      2.51078     -149.349 
0.00246333      13.6338     -125.929 
0.00155787      9.71201     -143.036 
-0.0125121      10.2306     -105.884 
0.000282125      16.6402     -126.594 
0.000544394      9.85917     -131.711 
0.00366095      12.4949     -118.698 
0.00132595      21.5830     -120.272 
0.000818727      23.2310     -129.831 
0.000280338      4.14845     -129.523 
0.000540862      17.5068     -123.254 
0.000279471      16.6296     -128.358 
0.00297777      11.1453     -135.872 
0.000542804      24.4400     -125.407 
0.000552835      22.7702     -130.012 
0.000529945      9.30273     -121.640 
0.000792379      3.08804     -126.573 
0.00127866      23.5848     -121.264 
0.00175151      7.13616     -142.745 
0.000540282      22.8850     -120.689 
0.00100480      16.7045     -126.431 
0.000275908      18.2614     -123.203 
0.000274765      25.8136     -129.214 
0.000274649      11.7284     -126.401 
0.00179348      20.8978     -120.099 
0.000274718      6.46467     -130.986 
0.00105919      10.5190     -117.150 
0.00102257      17.5348     -120.426 
0.000274430     0.582409     -105.945 
0.00106702      16.7695     -127.635 
0.000797500      9.23472     -121.900 
0.000772421      17.9731     -120.789 
0.000273922      21.1521     -126.697 
0.000769374      10.4092     -135.623 
0.000272697      16.0481     -127.098 
0.00275890      8.75333     -120.784 
0.000764526      24.3066     -129.926 
0.00128215      19.6163     -122.848 
0.000271718      12.5457     -125.920 
0.00102094      9.74622     -131.673 
0.000965699      3.24863     -142.001 
0.000270758      31.1733     -125.811 
0.00254838      9.67603     -122.508 
0.000535963      22.8829     -130.036 
0.000270515      23.6969     -123.851 
0.000529936      4.09800     -128.660 
0.000765625      11.5702     -119.401 
0.000269534      21.8722     -127.121 
0.000782587      27.2247     -128.318 
0.000268716      19.6836     -122.721 
0.000523662      24.0199     -130.001 
0.000996303      18.1542     -124.951 
0.00210319      9.94609     -116.771 
0.000266853      23.3437     -129.856 
0.000266864      17.5061     -127.760 
0.000780893      10.5903     -116.952 
0.00101303      20.6077     -121.345 
0.000266084      12.1147     -123.690 
0.000265487      25.7918     -129.715 
0.000757969      23.8739     -126.140 
0.000773246      31.5554     -126.027 
0.000520117      21.1687     -126.394 
0.000263568      11.6581     -133.332 
0.000523471      16.6169     -128.746 
0.00172531      18.0828     -120.877 
0.000516701      21.7120     -126.912 
0.000262410      11.5361     -127.108 
0.000262476      22.4935     -129.806 
0.00166674      26.5448     -126.421 
0.00254566      11.0880     -126.787 
0.000260310      20.5813     -121.651 
0.00101343      25.7816     -129.965 
0.00204989      11.6276     -116.565 
0.000498010      14.2024     -124.675 
0.00192850      19.5044     -126.494 
0.000755858      12.1634     -134.201 
0.00165890      17.3939     -127.713 
0.00121849      12.5928     -126.215 
0.000755618      7.41242     -133.688 
0.00194456      1.53883     -117.897 
0.000505950      19.5928     -123.171 
0.000258030      18.1085     -124.743 
0.000257715      11.0897     -136.169 
0.000746901      22.9345     -130.189 
0.00187316      27.3371     -128.346 
0.000256032      22.5448     -129.962 
0.000254188      22.9947     -120.759 
0.000966961      25.7203     -130.079 
0.00115883      17.4253     -120.332 
0.000975151      4.04851     -127.776 
0.000743073      16.8185     -127.851 
0.000701602      22.3435     -123.462 
0.00161541      11.7760     -126.714 
0.00180023      10.1206     -140.774 
0.00106959      8.09899     -132.198 
0.00164048      13.9943     -120.964 
0.000940238      10.0176     -116.565 
0.00187518      4.28803     -143.344 
0.00118162      21.6521     -120.165 
0.000251749      23.1696     -129.958 
0.000727411      15.1867     -125.783 
0.000686384      2.35287     -125.311 
0.00167165      18.1938     -127.676 
0.000250433      16.5546     -128.919 
0.000494947      22.4321     -129.936 
0.000482954      16.7521     -126.651 
0.000941648      21.1044     -126.522 
0.000249691      10.9120     -126.954 
0.000249198      23.9072     -129.977 
0.00137511      26.1628     -129.043 
0.000462509      18.8328     -127.405 
0.000248310      12.0705     -123.374 
0.000247658      15.9569     -120.422 
0.00139625      14.4773     -119.823 
0.000667616      23.9212     -126.295 
0.000246918      10.5224     -135.616 
0.000696952      19.4402     -126.634 
0.00240436      24.9828     -130.064 
0.00140391      10.4827     -116.761 
0.000934831      23.2823     -129.982 
0.00114389      21.6641     -126.743 
0.000246150      26.0162     -126.623 
0.00121189      2.17624     -126.027 
0.000944371      16.6050     -129.134 
0.00234781      3.10664     -124.509 
0.000243866      10.8482     -127.208 
0.00263173      12.2193     -134.469 
0.000243459      24.2453     -130.048 
0.000923564      16.3139     -120.337 
0.00157309      19.5492     -122.975 
0.000242663      23.7945     -129.954 
0.000479253      21.8240     -126.954 
0.00138786      25.8331     -130.101 
0.000901538      20.4000     -126.870 
0.00195655      9.19269     -121.477 
0.000240383      31.0616     -125.778 
0.00197263      6.54682     -128.550 
0.00110529      18.2277     -125.713 
0.000239105      15.9361     -127.042 
0.00157169      8.10531     -131.399 
0.00132496      10.5542     -116.565 
0.000473464      16.8677     -128.066 
0.000465498      20.6623     -120.735 
0.000907254      31.6672     -126.059 
0.00155915      9.79959     -132.022 
0.000690043      23.6532     -121.163 
0.000236443      22.5963     -130.117 
0.000474949      20.5133     -121.769 
0.000235450      23.1084     -130.085 
0.000235481      19.3602     -127.107 
0.00129606      17.4944     -120.200 
0.000234847      23.8459     -130.101 
0.000234671      25.8943     -129.987 
0.000460412      2.28806     -126.469 
0.00147474      7.24828     -142.624 
0.000234261      12.0506     -122.530 
0.000233728      15.2840     -120.861 
0.000790826      8.05263     -130.972 
0.00130363      9.77605     -143.318 
0.00258813      5.97059     -144.819 
0.000232738      19.6906     -121.882 
0.000681458      22.4836     -130.093 
0.000444470      6.53507     -129.536 
0.00115865      18.1811     -125.508 
0.000453254      20.5394     -121.461 
0.000230607      9.13718     -130.384 
0.000229943      22.8734     -130.319 
0.000229544      16.9307     -127.899 
0.000228925      13.2061     -125.134 
0.000449421      23.7332     -130.078 
0.000228082      18.6736     -121.511 
0.00194871      28.7521     -126.742 
0.00117244      4.16077     -127.972 
0.00169962      18.0419     -120.659 
0.000435982      11.6097     -119.745 
0.000227554      7.87299     -137.883 
0.000227425      9.26101     -121.218 
0.000660370      10.5797     -135.919 
0.000446878      8.65813     -116.328 
0.00118347      22.5563     -120.476 
0.000855704      14.2481     -124.939 
0.000225331      9.37605     -143.326 
0.00169957      20.9271     -119.799 
0.000443751      24.1841     -130.170 
0.000225202      21.1214     -126.219 
0.000764414      6.57608     -143.409 
0.00133780      10.9322     -128.463 
0.000224909      16.6556     -129.347 
0.00269018      19.5688     -126.355 
0.00157192      15.3937     -120.964 
0.00107012      22.9862     -130.342 
0.000440670      20.5936     -120.849 
0.00311953      30.2802     -125.538 
0.000438906      18.0887     -125.096 
0.00138413      7.46790     -134.132 
0.000224181      12.0938     -122.849 
0.000443937      15.9166     -120.174 
0.00149513      16.9171     -128.279 
0.000847680      4.00000     -126.870 
0.00121883      21.5427     -120.088 
0.00168729      25.9458     -130.122 
0.000221465      19.7166     -121.562 
0.00322209      9.15117     -121.050 
0.000437204      16.5430     -129.309 
0.00190183      12.2115     -121.608 
0.00142304      3.04105     -144.638 
0.000219884      16.7689     -126.269 
0.00103756      12.6403     -126.507 
0.000427174      2.57992     -150.255 
0.000218762      24.0805     -126.489 
0.000808790      31.0149     -125.658 
0.000218018      7.69665     -136.685 
0.00164628      15.2336     -126.027 
0.000792722      18.1348     -125.303 
0.000638994      19.6748     -121.363 
0.000423506      14.2139     -121.185 
0.000430578      22.4224     -130.224 
0.000216374      10.4666     -135.929 
0.000216008      23.8094     -126.254 
0.000417431      31.6201     -125.942 
0.00126719      17.3307     -127.875 
0.00105734      25.6592     -130.194 
0.00237923      11.1476     -136.454 
0.00103076      8.69501     -115.622 
0.000420412      18.6319     -121.301 
0.000414904      23.7848     -130.225 
0.00122568      27.4494     -128.373 
0.000418884      17.4400     -123.398 
0.00186159      9.98206     -116.154 
0.000212948      20.5250     -120.964 
0.000418833      15.8765     -119.924 
0.00143906      7.99240     -138.652 
0.000410988      16.5938     -129.523 
0.00262236      24.4807     -129.830 
0.00138291      21.6163     -126.573 
0.000816147      26.2753     -129.068 
0.00174207      11.2029     -136.157 
0.00132498      21.0569     -126.347 
0.000209972      11.6553     -133.888 
0.00221578      10.4470     -116.369 
0.00151738      26.6092     -126.319 
0.00101847      22.4742     -130.380 
0.000410816      9.18921     -130.764 
0.000593604      16.2737     -120.094 
0.000596548      23.2211     -130.109 
0.00117387      14.4377     -119.548 
0.000208447      24.0103     -130.270 
0.000606530      16.7064     -129.560 
0.000208426      20.4978     -121.271 
0.000955530      12.2797     -121.412 
0.000613236      10.8826     -128.134 
0.00113182      13.5691     -126.127 
0.000207147      16.3069     -129.626 
0.000206533      22.2995     -123.291 
0.000206177      24.1924     -126.529 
0.000733973      2.41859     -124.216 
0.00393747      12.5651     -118.523 
0.000598440      17.2817     -127.666 
0.000205734      23.8975     -130.248 
0.000398721      26.0330     -126.377 
0.000394986      9.70113     -121.855 
0.000204915      20.5527     -120.658 
0.000204291      9.88801     -143.223 
0.000602347      19.6333     -121.164 
0.000203889      22.9253     -130.471 
0.000566991      25.5464     -130.173 
0.00202858      12.1697     -121.287 
0.000203339      23.4094     -123.147 
0.000202880      9.68661     -131.987 
0.000202557      26.1102     -130.278 
0.00446882      8.61032     -138.013 
0.00204943      16.2966     -130.022 
0.000394689      10.5242     -136.232 
0.000201469      14.2941     -125.202 
0.000201258      15.9459     -119.781 
0.000200448      20.6215     -120.544 
0.000392621      19.5057     -122.778 
0.000200409      16.6748     -125.825 
0.000562893      20.4641     -126.736 
0.000570216      16.9042     -128.660 
0.00329241      3.15265     -144.293 
0.00155294      11.1361     -127.117 
0.000392565      19.7018     -121.044 
0.00138209      2.24143     -124.824 
0.00152307      25.9974     -130.257 
0.000198083      18.5905     -121.091 
0.000385690      23.3896     -122.712 
0.000197858      20.4564     -121.079 
0.000385228      10.8198     -128.395 
0.000391300      16.9668     -128.491 
0.00112459      23.8365     -130.372 
0.000750348      17.3851     -120.105 
0.00252889      9.69882     -118.045 
0.00127013      14.1455     -121.353 
0.00855079      6.32607     -122.082 
0.000196638      16.1644     -119.991 
0.00313703      8.66072     -115.145 
0.00335013      12.2755     -134.736 
0.000387615      9.84033     -143.596 
0.000386727      20.9966     -119.691 
0.000195892      17.3733     -123.544 
0.000684764      2.14663     -153.435 
0.000906095      9.74031     -132.337 
0.000384911      12.0755     -122.005 
0.000907942      22.3227     -123.007 
0.000708319      21.6120     -119.982 
0.000194372      20.4839     -120.772 
0.000194385      9.76950     -117.824 
0.000738834      14.2288     -125.388 
0.000756976      22.5261     -130.535 
0.000561229      17.4543     -119.973 
0.000906188      31.7319     -125.974 
0.000383971      15.9063     -119.530 
0.00141049      12.6880     -126.798 
0.000372055      23.0381     -130.493 
 0.0169408      1.47513      12.5288 
0.00259138      22.6253     -120.373 
0.000369898      6.49726     -127.999 
0.000743004      27.3868     -128.477 
0.000736321      18.0012     -120.440 
0.000191804      23.3338     -130.133 
0.000557318      27.5210     -126.370 
0.000191397      24.2358     -130.314 
0.000566005      20.5120     -120.466 
0.00139085      10.8697     -128.726 
0.000732291      26.3258     -129.204 
0.00296764      31.7004     -127.824 
0.000671649      6.73617     -142.722 
0.00125712      19.6606     -120.844 
0.000189931      16.3830     -120.196 
0.000374993      16.7575     -129.771 
0.000189578      24.4681     -125.821 
0.00127144      17.4176     -123.763 
0.000458499      27.1123     -128.290 
0.000549154      18.6180     -120.753 
0.000722922      22.9773     -130.623 
0.000354645      9.55221     -143.514 
0.000188505      10.6373     -136.219 
0.000188119      15.3454     -126.093 
0.00282942      27.4992     -128.504 
0.00133691      24.4193     -129.950 
0.000901657      15.7973     -119.421 
0.00123044      20.9571     -119.501 
0.000187512      2.47095     -150.945 
0.000368443      20.2136     -123.376 
0.000186935      3.95252     -125.942 
0.000186732      9.12877     -131.091 
0.000186406      22.7348     -120.445 
0.000350596      11.7109     -134.170 
0.000368406      9.95221     -143.499 
0.00196876      3.06203     -123.275 
0.000520537      23.6504     -126.056 
0.000693345      16.5079     -123.536 
0.000712557      19.5920     -120.964 
0.000183693      4.21046     -128.830 
0.000691628      25.9856     -126.235 
0.000532189      20.4716     -120.273 
0.00203796      22.4653     -130.668 
0.000358810      9.24164     -131.139 
0.000708538      26.1620     -130.411 
0.000182352      23.3658     -122.983 
0.000351063      1.46860     -119.358 
0.00104051      21.5687     -126.402 
0.000978612      4.11203     -127.093 
0.00217794      8.24621     -140.906 
0.000701001      16.8088     -129.980 
0.000522211      9.90483     -143.871 
0.000457485      12.1014     -121.483 
0.000180196      9.63328     -122.106 
0.000653949      16.6932     -125.442 
0.000179632      7.29712     -142.125 
0.000179534      20.4431     -120.579 
0.000522908      16.9543     -128.871 
0.00191539      18.2098     -126.064 
0.000749427      6.84830     -142.595 
0.000850319      13.6809     -126.200 
0.000522470      14.3984     -119.271 
0.00804080      12.3325     -134.474 
0.000678662      15.8670     -119.279 
0.000177582      20.4295     -121.387 
0.000836762      10.5821     -136.532 
0.00155077      10.5187     -116.175 
0.000345712      26.0492     -130.391 
0.000348199      10.0166     -143.771 
0.000967599      21.5027     -119.904 
0.00115265      27.5855     -126.272 
0.000175673      18.1305     -127.831 
0.00626941      1.18929     -160.346 
0.000175026      19.4385     -122.905 
0.00142630      17.3451     -119.876 
0.000506537      24.1748     -130.437 
0.00143014      14.2752     -125.650 
0.000663806      18.0703     -120.311 
0.000337077      25.8847     -130.236 
0.000338934      16.3429     -119.954 
0.000674115      23.7756     -130.497 
0.000498780      12.0333     -121.682 
0.000341955      18.6462     -120.416 
0.000172405      16.5306     -124.151 
0.00211480      28.6737     -128.884 
0.000632130      30.9033     -125.624 
0.000170973      5.92486     -145.452 
0.00358127      16.2872     -130.418 
0.000492147      20.1931     -122.872 
0.000338415      23.7364     -121.494 
0.000792566      7.34651     -141.633 
0.000337583      20.4025     -120.386 
0.000798971      15.7582     -119.168 
0.000169187      13.4574     -126.052 
0.000329025      9.62729     -132.306 
0.000781475      10.0539     -115.953 
0.000168256      23.1600     -130.236 
0.000332168      26.3765     -129.338 
0.000331153      19.5510     -120.763 
0.000167796     0.659697     -104.036 
0.000329691      22.9689     -130.904 
0.000952594      26.2139     -130.544 
0.00237837      5.99093     -145.886 
0.00168895      2.48516     -123.179 
0.000328011      8.15843     -131.820 
0.000330293      14.4295     -118.839 
0.000754869      12.6724     -127.304 
0.000326450      16.8603     -130.188 
0.00333750      23.5386     -126.013 
0.000529333      9.73669     -118.460 
0.000963975      19.4625     -122.580 
0.000935401      17.3799     -128.083 
0.000629476      13.6165     -126.399 
0.00154427      20.5282     -126.602 
0.00109557      19.6197     -120.643 
0.000634018      23.0294     -130.774 
0.000485261      18.6058     -120.203 
0.000484802      20.4313     -120.079 
0.000164474      13.6938     -120.160 
0.000608141      18.0816     -127.630 
0.00123944      10.0813     -144.039 
0.00160222      8.18428     -140.553 
0.000326307      16.9215     -130.014 
0.000473808      29.2763     -125.210 
0.00286622      6.46418     -143.556 
0.000470937      15.2808     -126.270 
0.000615010      7.41587     -132.814 
0.000313923      21.0096     -126.172 
0.000769140      20.9178     -119.310 
0.000905218      26.3788     -130.696 
0.000977173      1.50306     -115.201 
0.00150524      19.6163     -126.543 
0.000318139      31.8436     -126.006 
0.00176936      22.5175     -130.822 
0.00108425      14.3911     -118.560 
0.000319103      23.7148     -130.622 
0.000160920      16.1940     -119.604 
0.00121376      21.5213     -126.231 
0.000160516      20.2250     -121.741 
0.000309276      17.9608     -120.220 
0.000757617      25.7719     -130.215 
0.000464407      29.6661     -127.550 
0.000159642      4.35247     -143.973 
0.000300163      9.61665     -143.797 
0.00146096      22.2792     -122.834 
0.000159081      3.20000     -143.130 
0.000308992      24.5150     -125.972 
0.000302500      17.3511     -123.910 
0.000158552      11.6011     -118.863 
0.000281252      10.1713     -119.186 
0.000298153      15.6818     -121.014 
0.000462722      26.4891     -129.362 
0.000298562      16.8093     -119.982 
0.00106046      16.9730     -130.221 
0.000157670      9.29447     -131.511 
0.000599731      16.5523     -123.767 
0.000592104      4.06428     -126.193 
0.00104929      15.8281     -119.026 
0.000156902      20.9925     -126.477 
0.000303434      26.5619     -126.180 
0.000156427      8.37520     -133.452 
0.000977780      14.1041     -121.075 
0.000562664      15.5219     -125.984 
0.000155856      18.6750     -120.080 
0.000751338      20.3914     -119.884 
0.000997795      24.6915     -125.905 
0.000155502      20.1830     -121.548 
0.000308372      23.7670     -130.769 
0.000304724      16.3031     -119.710 
0.000154867      12.1434     -121.805 
0.00234108      18.6350     -119.867 
0.000447122      24.2268     -130.581 
0.00100040      12.7361     -127.086 
0.00153254      15.2164     -126.448 
0.000303351      4.30590     -144.834 
0.00148071      18.0300     -120.092 
0.000442193      9.68132     -132.656 
0.000489069      10.2503     -119.967 
0.00101679      27.6500     -126.174 
0.000152598      13.5046     -126.327 
0.000867752      22.5158     -120.300 
0.000427541      17.4145     -119.745 
0.00193842      8.62703     -114.664 
0.000436368      26.0502     -126.131 
0.000558454      24.9216     -130.182 
0.00111240      21.5721     -119.798 
0.000427015      20.1149     -121.667 
0.00631133      11.2057     -136.736 
0.000575370      23.7783     -121.658 
0.000710026      16.7001     -119.881 
0.000568731      23.0818     -130.924 
0.00110515      11.1846     -127.444 
0.000150868      2.54118     -151.821 
0.000521903      31.7967     -125.890 
0.000150725      23.6542     -130.748 
0.000278843      1.43108     -116.565 
0.000778482      10.2905     -120.353 
0.000285821      18.2402     -126.619 
0.000149454      8.43042     -133.847 
0.00120959      29.2110     -125.301 
0.000149154      17.0955     -129.874 
0.00130533      25.0344     -130.204 
0.000796495      9.01590     -116.338 
0.000293233      23.0214     -131.055 
0.000147965      23.7065     -130.895 
0.000779720      7.40940     -142.017 
0.00172231      11.7668     -134.449 
0.000936179      19.5791     -120.442 
0.000147295      17.0342     -130.047 
0.00167478      29.7007     -127.889 
0.000288299      13.6538     -119.870 
0.000542332      9.74359     -122.255 
0.000146749      26.5293     -129.739 
0.000146705      23.7589     -131.041 
0.000429723      4.17612     -126.431 
0.00115866      28.6115     -128.985 
0.000281242      13.6641     -126.669 
0.000352428      20.1570     -121.861 
0.000980237      14.3530     -118.279 
0.000284196      11.6495     -120.087 
0.000566876      23.8115     -131.186 
0.00121386      17.4294     -128.290 
0.000421320      8.48604     -134.236 
0.00215759      4.37154     -145.437 
0.000144425      19.9155     -119.345 
0.000144302      10.0345     -144.409 
0.000284297      21.0742     -126.043 
0.000671554      31.9084     -125.922 
0.000560674      13.5522     -126.599 
0.000278252      10.6403     -136.828 
0.000667241      25.8236     -130.351 
0.000143604      20.2822     -119.801 
0.000272334      27.5383     -126.138 
0.000754524      2.21847     -154.359 
0.000142937      26.5399     -129.496 
0.000142823      20.9876     -119.203 
0.000253736      20.0891     -121.981 
0.000265030      16.5756     -124.380 
0.00101208      14.3220     -125.910 
0.000142604      23.3223     -122.818 
0.000809975      17.0248     -130.426 
0.00282708      10.3312     -120.735 
0.00118479      10.1461     -144.305 
0.00330058      12.6354     -118.350 
0.000141764      8.04547     -131.775 
0.000261483      24.5621     -126.123 
0.000141909      25.9364     -130.371 
0.00120404      15.7894     -118.773 
0.000523838      30.8568     -125.503 
0.000924693      3.01887     -122.005 
0.000141189      26.4916     -130.714 
0.000669251      20.3516     -119.689 
0.000675133      19.7676     -119.055 
0.000140212      18.1628     -125.860 
0.00243234      19.5102     -120.561 
0.00137043      25.7109     -130.331 
0.000276349      20.8788     -119.119 
0.000268327      11.7098     -134.723 
0.000544716      17.0858     -130.252 
0.000656760      24.2789     -130.724 
0.000274029      21.4630     -119.718 
0.000139304      9.94706     -115.741 
0.000407270      26.2660     -130.677 
0.000139185      9.23472     -131.840 
0.000276345      26.5805     -129.872 
0.00257563      22.5850     -120.198 
0.000138512      10.4117     -115.974 
0.000138322      18.2240     -126.971 
0.000138107      16.1547     -119.358 
-0.00543921      8.87531     -152.049 
0.000394712      21.1389     -125.916 
0.00194185      32.6125     -127.826 
0.000528980      23.0740     -131.205 
0.00101392      26.4310     -130.827 
0.000259753      27.0000     -128.262 
0.000712199      2.37453     -122.619 
0.00141346      10.2215     -120.579 
0.000665292      23.8043     -131.458 
0.000516694      17.3054     -119.646 
0.000534532      22.4571     -130.956 
0.00161476      26.5148     -126.040 
0.00237384      21.4742     -126.059 
0.00228602      3.90610     -124.992 
0.000135911      19.8764     -119.144 
0.000135592      22.5699     -130.976 
0.000641358      9.67736     -133.325 
0.00183694      27.6029     -126.040 
0.000484544      16.6210     -124.608 
0.000135161      20.9450     -126.301 
0.00226596      14.3860     -117.848 
0.000134840      9.87506     -115.942 
0.000135145      26.5908     -129.629 
0.00181581      4.19447     -124.902 
0.000264218      8.00040     -130.539 
0.000134133      11.2573     -135.288 
0.000134201      24.4975     -126.234 
0.000134093      20.2931     -121.622 
0.000366866      17.4622     -123.981 
0.00289647      20.5925     -126.469 
0.000873147      20.9487     -119.012 
0.000263661      16.0068     -118.999 
0.000392397      13.6000     -126.870 
0.000132640      13.5748     -119.284 
0.00390185      9.05167     -116.792 
0.000262573      26.6318     -130.004 
0.000255619      20.1316     -122.174 
0.000379302      8.54204     -134.621 
0.00450357      14.3153     -117.997 
0.00100301      23.8573     -131.602 
0.00386534      10.7976     -149.255 
0.00216707      17.9900     -119.871 
0.000502824      11.3137     -135.000 
0.000620936      17.1376     -130.456 
0.000794099      18.1602     -127.122 
0.000869556      22.5096     -131.109 
0.00321726      17.3749     -119.516 
0.00558287      5.94643     -146.524 
0.000129700     0.480000     -90.0000 
0.00651208      10.7570     -149.621 
0.000373667      28.8000     -126.870 
0.000252750      9.84033     -115.523 
0.00145174      22.4756     -120.124 
0.000488850      17.4922     -128.128 
0.000255918      20.4031     -121.696 
0.000373191      8.54354     -133.862 
0.000129002      15.7193     -118.913 
0.000128598      22.6225     -131.129 
0.000558698      21.3624     -126.012 
0.000596081      12.7845     -127.372 
0.00223156      19.8376     -118.942 
0.000128017      16.6469     -125.218 
0.000967258      16.2786     -130.815 
0.000846106      15.8596     -118.634 
0.00190041      15.2000     -126.870 
0.000358490      11.0446     -128.530 
0.000253420      13.5358     -118.989 
0.000490837      26.6833     -130.135 
0.000802283      12.0000     -126.870 
0.000730076      13.6482     -127.139 
0.000126177      9.76819     -115.726 
0.000243168      7.94864     -130.101 
0.000810308      16.6604     -119.643 
0.00144733      21.5325     -119.613 
0.000125392      16.9640     -130.601 
0.000462853      9.78783     -134.007 
0.000226374      8.66995     -138.366 
0.000242807      26.6419     -129.762 
0.000362683      3.08700     -121.218 
0.000125038      8.72624     -121.504 
0.000246710      16.3392     -130.632 
0.000963171      17.4790     -128.496 
0.00148590     0.486621     -80.5377 
0.000124354      16.1156     -119.110 
0.000124341      23.1343     -131.074 
0.000235336      20.4453     -121.887 
0.000123814      21.6672     -130.808 
0.000243546      15.5035     -121.065 
0.000238905      21.6416     -119.692 
0.000123858      23.0668     -131.485 
0.000241911      13.5675     -118.530 
0.00131498      11.1571     -128.596 
0.000451371      18.1760     -126.769 
0.000122539      21.0921     -125.740 
0.000783689      10.5272     -136.848 
0.000908213      26.3182     -130.809 
0.000762992      21.9293     -119.745 
0.00288456      24.3312     -130.867 
0.00277707      18.5953     -119.653 
0.000122107      7.99240     -131.348 
0.00232199      21.7195     -130.968 
0.00111893      28.6236     -128.760 
0.000469700      20.4212     -119.578 
0.00212691      31.7495     -127.938 
0.000330664      14.0629     -120.796 
0.00169795      8.78289     -138.323 
0.000661241      8.68470     -121.054 
0.000241475      23.1268     -131.354 
0.000704498      17.0768     -130.630 
0.000762215      11.1702     -128.019 
0.000465608      22.5623     -131.262 
0.000236123      13.4973     -118.692 
0.00196968      8.55439     -114.887 
0.000810381      23.7975     -131.730 
0.000681925      17.4429     -127.921 
0.000466730      9.73374     -115.301 
0.000120656      16.6009     -124.992 
0.00102855      24.9733     -130.323 
0.000361204      15.7511     -118.518 
0.00154888      32.6269     -127.629 
0.000646577      8.43801     -137.690 
0.000118870      23.1797     -131.502 
0.000344138      27.4911     -126.003 
0.000657728      13.5845     -127.342 
0.00150887      19.5300     -122.453 
0.00338819      8.59916     -134.246 
0.000708889      20.1993     -122.053 
0.000117368      9.84358     -134.341 
0.000643602      18.8815     -127.598 
0.000341778      13.6378     -118.369 
0.00105449      29.1648     -125.172 
0.00187129      23.2360     -122.486 
0.00127582      8.30845     -141.254 
0.00105444      11.2573     -134.712 
0.000218391      27.0496     -128.395 
0.000340404      15.4350     -121.218 
0.00122674      28.8640     -126.775 
0.00106536      6.25843     -122.471 
0.000323958      26.7350     -130.267 
0.000115791      23.8204     -121.822 
0.000562610      30.7452     -125.468 
0.000224561      23.1199     -131.634 
0.000660805      17.1896     -130.659 
0.000654881      20.5555     -121.958 
0.00233915      27.7933     -130.798 
0.00363557      2.19672     -123.111 
0.000809834      7.93977     -130.914 
0.000653419      15.9298     -118.496 
0.00439931      31.8615     -125.805 
0.000557876      23.2328     -131.650 
0.000217113      2.97725     -120.700 
0.00230133      26.4834     -130.958 
0.000827169      10.2578     -144.203 
0.000833896      10.3723     -121.115 
0.00138648      16.3310     -131.028 
0.00140296      21.0187     -118.906 
0.00202761      23.8509     -131.873 
0.000643059      26.6932     -129.894 
0.000113754      8.59842     -135.000 
0.000849567      15.8214     -118.379 
0.000112958      22.0385     -119.822 
0.000222794      13.4271     -118.856 
0.000642368      3.04631     -119.932 
0.00220293      17.9207     -119.999 
0.000638033      9.77507     -118.872 
0.000111162      28.5612     -128.860 
0.000110771      22.6151     -131.415 
0.00132016      13.6331     -127.610 
0.000882449      1.47078     -112.380 
0.000217514      18.1120     -126.921 
0.000419652      7.45890     -141.532 
0.000217481      17.5070     -124.198 
0.000323753      10.4837     -115.783 
0.00260447      25.5981     -130.310 
0.000478775      11.8230     -134.726 
0.000522542      22.5022     -131.397 
0.000109651      25.0861     -130.344 
0.000730970      29.7605     -128.780 
0.000518217      21.4234     -119.533 
0.000216996      25.6625     -128.799 
0.000403868      9.77245     -114.677 
0.000622171      17.0161     -130.806 
0.000303031      20.4908     -119.467 
0.000216311      15.6808     -118.657 
0.000973751      28.9504     -125.667 
0.000412726      10.2625     -120.964 
0.000108556      22.6681     -131.566 
0.00163238      13.7083     -118.210 
0.000304464      9.76295     -123.299 
0.00118868      4.26033     -124.287 
0.000894249      13.3887     -118.556 
0.00140998      25.0252     -130.462 
0.00120890      27.5559     -125.905 
0.000107281      23.7379     -131.858 
0.000394820      16.6210     -119.403 
0.000106785      20.9100     -118.820 
0.000106650      22.4494     -131.244 
0.000106748      23.9105     -131.745 
0.000106294      19.7289     -118.852 
0.000509100     0.226274      45.0000 
0.000106033      23.1731     -131.781 
0.000206441      9.69981     -114.874 
0.000504480      15.5449     -121.318 
0.000806535      22.6416     -122.005 
0.000704178      23.2860     -131.797 
0.000491033      17.3024     -130.687 
0.00103184      19.4872     -122.255 
0.00101285     0.560000      0.00000 
0.00172068      10.5558     -115.594 
0.000982329      24.3233     -131.133 
0.000943170      14.3691     -126.168 
0.000501536      28.6361     -128.535 
0.000301493      25.6125     -128.660 
0.000567834      20.3818     -119.382 
0.000499913      2.44229     -121.608 
0.00147042      15.8918     -118.242 
0.000102519      30.5221     -125.398 
0.000971037      6.39400     -121.701 
0.000670058      17.1290     -130.833 
0.000351567      23.0005     -131.898 
0.000281712      12.7210     -127.591 
0.000101778      23.3990     -131.812 
0.000472972      28.5736     -128.635 
0.000775696      16.3235     -131.424 
0.000652647      12.2382     -121.092 
0.000296530      17.5521     -124.414 
0.000288963      2.93721     -119.358 
0.00138771      21.7721     -131.127 
0.000545436      9.74425     -119.511 
9.98005e-05      22.8876     -131.883 
0.000838773      29.7485     -128.997 
0.000736748      4.39345     -146.889 
0.000278117      26.7445     -130.025 
0.000547314      19.7990     -118.740 
9.90587e-05      8.37902     -137.322 
0.000191752      22.5552     -131.549 
0.000448745      7.92283     -133.363 
0.000312989      23.6784     -131.987 
0.000533941      26.5795     -125.939 
0.000283092      21.9988     -119.642 
0.000694142      12.1120     -126.946 
0.00111713      15.7130     -118.261 
0.000383012      15.4132     -131.634 
0.00228138      11.1073     -128.273 
0.000439601      21.3841     -119.346 
0.00105881      22.3893     -131.379 
0.000831007      18.9304     -127.790 
0.000377052      26.7867     -130.397 
0.000545200      10.1386     -132.122 
0.00108345      8.84281     -138.668 
-0.00267415      2.17624     -17.1027 
0.00195449      15.2481     -127.110 
0.000189739      25.0772     -130.601 
0.00146090      15.6426     -118.400 
0.000907454      22.4355     -119.948 
0.000914363      28.5863     -128.409 
0.000794863      22.9410     -132.032 
0.000436323      26.5326     -125.799 
0.00121338      20.4515     -119.272 
0.000988567      23.4524     -131.958 
0.000534691      26.3705     -130.941 
0.000272639      16.6907     -119.268 
0.00130944      19.9463     -119.032 
0.000188810      7.24431     -133.210 
9.51604e-05      23.7914     -132.002 
9.50216e-05      17.5289     -128.701 
9.49080e-05      17.7544     -124.907 
0.000267545      25.5501     -128.772 
0.000454041      3.00719     -118.610 
0.000797324      30.6336     -125.433 
0.00175879      23.7949     -122.087 
0.000184595      16.9033     -130.778 
0.000612581      8.72990     -138.715 
0.00304713      6.19109     -122.869 
0.000220499      9.81395     -119.281 
0.00114267      27.5091     -125.770 
0.00175377      5.21720     -144.360 
0.000184006      20.5979     -122.147 
0.000715634      17.4446     -119.386 
0.00209672      15.4070     -132.054 
0.000775171      13.3185     -118.720 
0.00326790      18.6649     -119.532 
0.00187501      32.6617     -127.937 
0.00100540      8.71266     -120.332 
0.000344823      23.9043     -132.016 
0.00201370      6.46220     -121.329 
0.00167465      25.0687     -130.859 
9.19866e-05      16.0002     -118.359 
0.000179609      17.5169     -129.068 
0.000493690      25.5626     -128.520 
0.000256630      23.3394     -131.943 
0.000444419      16.3766     -131.634 
0.000434146      9.73932     -114.249 
0.00221594      11.2011     -134.421 
9.12097e-05      4.92958     -131.711 
0.000659104      17.4152     -130.715 
9.11966e-05      23.2265     -131.929 
0.000178290      17.1525     -124.357 
0.000725861      13.6706     -117.915 
0.000437199      21.7119     -131.265 
0.00154952      23.1931     -122.320 
0.00177325      7.88761     -130.475 
0.000417262      2.29085     -155.225 
0.000842004      22.4422     -131.532 
0.000662868      12.7059     -118.179 
0.000595485      13.6190     -128.082 
0.000562967      9.78554     -124.340 
0.000995834      28.5111     -128.735 
0.00106269      24.6447     -125.754 
0.00122536      23.0540     -132.046 
0.000814036      23.5654     -131.973 
0.000228239      7.97637     -134.594 
0.00219217      4.21578     -123.389 
0.000324773      21.8898     -119.563 
8.84154e-05      23.2182     -122.047 
0.00111771      29.7989     -129.116 
0.000462143      21.1274     -118.991 
0.00162420      4.87672     -131.009 
0.000498714      28.9120     -126.902 
0.00174302      16.9557     -130.982 
0.000959622      15.9624     -118.106 
8.79497e-05      13.5698     -127.816 
0.000633844      26.9623     -128.978 
0.000547595      9.78391     -119.919 
0.000327392      10.3228     -144.462 
0.00234573      17.2418     -130.861 
0.000172522      26.7035     -129.652 
8.68576e-05      3.86078     -124.019 
0.00192313      32.6758     -127.740 
0.000172280      26.7005     -125.119 
0.00120209      22.1933     -132.663 
0.000240057      17.6430     -124.843 
0.00149069      17.0685     -131.009 
0.000623486      19.4696     -120.358 
0.000560173      2.26416     -122.005 
0.000769280      18.9796     -127.981 
0.000666865      9.85332     -119.687 
0.00187018      17.5674     -129.271 
8.59467e-05      20.5913     -119.055 
0.000572213      2.89883     -117.979 
0.000552424      16.6517     -119.028 
0.00324464      15.4665     -131.855 
0.000918158      20.9801     -118.715 
0.00147450      16.3703     -132.029 
0.00175273      12.1284     -120.964 
0.00153841      9.08801     -117.242 
0.00199558      4.48642     -148.861 
0.000165653      21.8202     -119.667 
8.43852e-05      14.0356     -121.244 
0.000412055      22.3957     -119.770 
0.00123179      11.5920     -116.211 
0.000608085      28.9038     -125.538 
8.41795e-05      26.8387     -130.527 
0.000163860      16.6256     -130.512 
0.00174464      26.6545     -124.978 
0.000267964      20.5214     -119.163 
0.00318649      13.2448     -133.042 
0.000694266      22.9947     -132.180 
0.00103973      21.6592     -131.106 
0.000630569      25.1211     -130.997 
0.00109942      13.2802     -118.418 
0.000146242      28.4487     -128.836 
0.00137872      13.7414     -117.759 
8.27248e-05      20.2672     -121.933 
0.000164374      27.6207     -125.808 
0.000538584      27.8539     -130.691 
8.23235e-05      13.5361     -127.073 
0.000805829      10.1449     -131.483 
8.19435e-05      21.4931     -119.427 
0.000160158      29.1613     -128.316 
0.000900156      10.9705     -140.622 
0.000239347      26.7546     -129.784 
0.000162110      13.7183     -128.608 
0.000351624      7.02407     -142.869 
0.00118806     0.640000      0.00000 
8.16069e-05      15.5723     -118.540 
0.000678857      1.44222     -109.440 
0.000160589      16.0706     -118.223 
0.00120323      22.5448     -120.022 
0.000833742      9.70674     -113.819 
8.06668e-05      26.8301     -130.768 
0.00104853      17.4862     -124.563 
0.00204950      25.5372     -130.426 
0.00143712      27.5740     -125.673 
0.00179011      19.4196     -122.381 
0.000223285      18.0044     -125.597 
7.92787e-05      13.4880     -126.802 
0.000594879      22.5049     -119.846 
0.000156119      25.5001     -128.632 
0.000385548      21.7111     -119.588 
0.000522402      18.9661     -128.320 
7.86162e-05      22.3561     -119.592 
0.000154808      13.8693     -129.382 
0.000154539      26.9506     -129.218 
0.000892276      21.2362     -119.076 
0.000149676      10.1924     -132.455 
0.000380634      16.0330     -117.972 
0.000226615      28.5237     -128.509 
0.000495135      8.52103     -114.399 
7.76960e-05      13.8187     -129.126 
0.000152792      22.3167     -119.414 
0.000978808      12.6736     -118.668 
0.000815086      27.4624     -125.635 
0.000372607      7.35478     -134.119 
0.00199047      20.7829     -132.348 
0.000640852     0.505964     -71.5651 
0.000152443      22.3293     -131.514 
0.000151587      13.4402     -126.529 
0.000427381      15.5342     -118.281 
0.000923987      29.2110     -128.439 
7.64396e-05      19.5392     -125.838 
0.000297246      26.8907     -130.657 
0.000151703      2.96971     -117.255 
0.000453003      17.3547     -130.888 
7.62092e-05      22.4257     -119.491 
0.00129557      25.1135     -131.255 
0.000929450      9.05415     -117.924 
0.000210996      13.2414     -133.531 
0.000501949      23.9638     -131.888 
0.000283842      16.6777     -130.721 
0.000682293      8.64370     -120.600 
0.000222657      14.0659     -130.849 
0.000145245      19.5215     -126.165 
0.000602165      18.0511     -125.803 
0.000503027      26.4230     -131.072 
0.000635478      19.0158     -128.509 
0.000280653      17.2659     -119.416 
0.000148197      22.7094     -121.898 
0.000645037      29.9914     -129.806 
0.000147881      23.4917     -125.855 
0.000147438      19.6202     -118.760 
0.000760150      14.1699     -117.578 
7.42902e-05      22.3085     -118.955 
0.000458869      18.2572     -127.523 
7.42924e-05      18.4167     -119.683 
7.42759e-05      23.9051     -122.148 
0.00106588      2.86217     -116.565 
0.00124332      17.8115     -119.904 
0.00192925      22.2476     -132.814 
0.000644089      23.8374     -122.250 
7.32286e-05      22.1933     -118.413 
0.000418937      13.3928     -126.254 
7.32268e-05      3.17289     -146.310 
0.000762554      24.0173     -132.030 
0.000213582      22.1554     -118.231 
0.00343900      6.53067     -120.964 
0.000305191      7.93252     -131.730 
0.000212723      14.0137     -130.601 
7.21925e-05      15.5186     -121.724 
0.000276686      18.5559     -119.438 
0.00151037      25.5129     -128.379 
0.000211198      16.1037     -117.838 
0.000206246      16.6131     -118.787 
0.00125708      20.8186     -122.285 
0.00121435      22.1137     -117.585 
0.000308830      11.4872     -117.814 
0.000641485      23.9478     -122.310 
0.00168343      26.5359     -131.088 
0.000819569      19.5116     -118.667 
0.00115543      10.5214     -115.201 
0.00132502     0.160000      90.0000 
7.11600e-05      4.55509     -149.381 
0.000334778      10.3695     -144.103 
7.10170e-05      20.8014     -118.734 
0.000199684      12.1760     -126.719 
0.000451596      21.7807     -119.484 
0.000127381      12.7439     -118.496 
0.000453711      26.9429     -130.786 
0.000337156      7.41069     -134.563 
0.000942491      12.1970     -120.770 
7.01469e-05      16.5044     -118.677 
0.000572687      14.4164     -126.425 
0.000851429      17.3357     -119.286 
0.00158896      9.67471     -113.385 
0.000987242      29.0269     -131.201 
6.96049e-05      28.0029     -126.051 
0.00202426      16.4240     -132.236 
0.000450501      19.4293     -120.155 
6.92760e-05      24.6631     -125.494 
0.000626149      21.0888     -118.801 
0.000651753      30.0426     -129.923 
0.00105113      27.8456     -130.923 
0.000202948      13.9618     -130.352 
0.000201594      13.6334     -117.618 
0.00163633      28.0676     -125.955 
0.000387095      16.1744     -117.706 
0.000437148      10.1811     -120.192 
0.000531155      2.25850     -157.068 
0.000358220      11.4847     -116.922 
0.00156009      9.83089     -124.725 
6.76995e-05      2.33238     -120.964 
0.000632650      11.0325     -140.886 
0.00225547      1.26491     -161.565 
0.00133526      22.3365     -131.225 
0.000930995      28.9689     -125.446 
0.000194652      25.3329     -125.748 
0.00155646     0.720000      0.00000 
0.000989154      19.0289     -128.171 
6.69176e-05      21.5859     -126.105 
0.000129816      17.6626     -119.584 
0.000275166      19.5361     -127.011 
0.000286211      11.5203     -116.387 
0.000942198      24.0768     -131.902 
0.00130402      29.2608     -128.562 
0.000352834      3.36476     -151.607 
0.000252795      13.9101     -130.101 
0.00173571      22.1218     -123.345 
0.000129687      16.0665     -117.586 
0.000453376      8.65517     -134.626 
0.000723966      13.2424     -118.113 
0.000767219      13.3456     -125.977 
0.000313614      4.84842     -127.626 
6.50921e-05      20.0551     -119.121 
0.000126023      22.0780     -123.172 
6.46469e-05      21.4272     -125.886 
0.000700869      21.6067     -130.946 
6.41412e-05      17.8928     -125.538 
0.000300806      13.8587     -129.848 
6.38351e-05      15.4259     -118.160 
0.000480449      7.46705     -135.000 
0.000792336      16.8407     -123.766 
0.00146502      13.7043     -117.463 
0.000246078      20.6928     -118.646 
0.000288713      15.7835     -118.124 
0.000184619      8.48830     -113.908 
0.000530717      2.15407     -121.329 
0.000124700      23.3190     -119.379 
0.000649160      8.60326     -120.141 
6.29524e-05      13.3130     -117.951 
6.26238e-05      18.3772     -119.466 
0.000466494      15.2802     -117.773 
0.000558664      16.8428     -130.956 
0.00117684      20.5760     -126.781 
6.24069e-05      22.4652     -119.669 
0.000689126      26.6088     -124.837 
0.000123192      7.87949     -131.295 
0.000686964      21.5389     -125.933 
0.000175699      20.0942     -119.320 
0.000177333      27.3974     -125.732 
0.00116248      18.7739     -119.624 
0.000390759      17.4409     -124.346 
0.000387319      14.1331     -117.290 
0.000114474      13.8076     -129.593 
0.000335627      12.3897     -134.215 
0.00103569      8.60140     -133.493 
6.13359e-05      3.56786     -160.346 
0.000642929      30.0940     -130.040 
0.000179191      25.3978     -125.643 
6.11913e-05      20.6383     -124.737 
0.000907747      16.1374     -117.454 
0.00219906      4.17229     -122.471 
0.00111213      8.90303     -139.008 
0.000788737      14.2123     -132.491 
0.00116362      20.8369     -132.510 
0.000985489      3.64330     -160.769 
0.000947741      19.3602     -120.273 
0.000173034      26.9744     -128.739 
0.000118960      11.1450     -140.826 
0.000739792      23.2799     -119.208 
0.000512475      20.5928     -124.554 
-0.00123560      3.34090     -106.699 
0.000438324      20.0468     -121.787 
0.000118467      18.0044     -128.143 
0.000668026      7.08802     -143.259 
0.000281130      10.4344     -144.360 
0.000172188      13.2757     -117.646 
0.000494935      15.2641     -126.690 
0.000880763      2.82730     -115.115 
5.94987e-05      18.0980     -126.009 
0.000649913      29.2483     -128.782 
5.90378e-05      18.1797     -128.030 
0.000274196      13.1864     -133.279 
0.000783382      4.58450     -150.751 
0.00197076      22.1847     -117.489 
0.000280645      14.3521     -126.614 
0.000484540      4.80000     -126.870 
0.000666657      18.4469     -119.344 
0.000377423      13.7567     -129.336 
0.000710807      23.9907     -122.471 
0.000814430      20.6226     -118.752 
0.000220334      26.8573     -130.046 
0.000490183      8.52967     -113.199 
0.000276857      10.7572     -141.340 
5.76177e-05      17.5791     -128.904 
0.00102325      25.1663     -131.392 
5.71849e-05      18.0169     -123.408 
0.000158449      7.20000     -143.130 
0.000112495      17.8921     -128.100 
0.000447134      13.7062     -129.078 
0.000560467      11.2071     -141.085 
0.000899721      12.1563     -120.446 
0.000489721      5.79379     -125.446 
0.000959036      6.01332     -146.944 
0.000253582      19.4031     -118.573 
0.000103985      10.9950     -128.204 
5.64301e-05      7.51532     -115.201 
0.000713769      30.9542     -129.862 
0.000249973      17.6294     -129.106 
0.000319990      18.2428     -127.875 
0.000571341      19.3200     -120.069 
0.000482192      7.48160     -114.647 
0.000284819     0.430813     -68.1986 
0.000774465      9.11017     -120.619 
5.56228e-05      26.9515     -130.546 
0.000157962      25.4445     -125.789 
0.00102640      19.4734     -118.460 
0.000738213      17.9730     -123.195 
0.000445563      1.41760     -106.390 
0.000426092      6.41698     -144.130 
5.51701e-05      17.7798     -128.056 
0.000109221      27.7852     -131.031 
0.000160978      17.6182     -129.472 
0.00122798      22.3021     -132.965 
0.000419874      30.1456     -130.156 
0.000360461      8.51202     -143.022 
0.000707463      30.5873     -125.311 
0.000108236      25.3797     -125.895 
5.45194e-05      16.0296     -117.332 
0.000340749      9.62264     -132.979 
0.000593789      20.0048     -121.592 
0.000358270      29.2363     -129.003 
5.41221e-05      19.4744     -125.975 
0.000780001      11.4501     -117.460 
0.000458724      20.8867     -132.982 
0.000106348      27.0126     -129.110 
5.39979e-05      18.0540     -128.343 
0.000312043      13.2048     -117.807 
0.000465535      27.8378     -131.155 
0.000964318      7.91070     -118.379 
5.34343e-05      2.55249     -122.196 
5.34032e-05      23.8802     -122.412 
0.000793429      20.5475     -124.371 
0.000781214      15.2431     -117.506 
5.33440e-05      16.7743     -123.917 
0.000772923      28.1324     -125.860 
0.000556014      22.3967     -131.090 
0.000456369      27.3325     -125.830 
0.000244869      15.1722     -117.646 
0.000471831      14.4000     -126.870 
0.000802250      11.0946     -141.147 
5.26370e-05      23.1600     -121.439 
0.000796556      21.5543     -130.786 
0.000420115      7.83551     -122.067 
0.00112969      20.9380     -133.452 
0.00108492      16.1007     -117.202 
0.000509238      13.2988     -125.698 
0.000745348      12.7122     -118.985 
0.000380056      19.2508     -120.188 
5.19629e-05      7.92040     -134.182 
0.000245090      10.4995     -144.615 
0.000736398      26.6745     -124.739 
0.000536895      17.7022     -119.809 
0.000940471      9.64324     -112.949 
0.00117508      30.9443     -130.071 
9.77324e-05     0.466476     -59.0362 
9.70577e-05      13.2716     -124.935 
5.12352e-05      29.3107     -128.684 
0.000184900      11.8240     -134.178 
0.000100805      16.4833     -132.049 
0.000453897      27.6857     -125.711 
0.000100185      10.1411     -119.801 
0.000287033      10.8198     -141.605 
0.000281986      26.8673     -129.806 
0.000708831      24.0337     -122.632 
0.000100887      17.8292     -128.258 
0.00113074      16.5370     -132.255 
0.000665080      7.44860     -114.087 
0.000667260      2.79428     -113.629 
0.000511927      18.2920     -128.073 
0.000529629      32.7109     -128.047 
9.94411e-05      19.0784     -128.360 
0.000491027      26.4756     -131.202 
0.000240960      29.1398     -131.216 
5.01343e-05      9.87668     -144.894 
0.000360820      23.7320     -132.131 
0.000144815      17.5280     -130.743 
0.000587270      19.0657     -128.697 
0.000470486      30.1972     -130.272 
0.000575520      20.5525     -118.860 
0.000472071      27.7776     -131.264 
0.000541791      4.75243     -126.098 
0.000357221      25.4267     -126.041 
0.000193347      13.2387     -117.339 
4.91838e-05      17.5536     -119.486 
0.000884872      29.2867     -129.124 
0.000308335      20.9290     -122.354 
0.000313537      8.49847     -112.703 
-0.000367119      2.10447      171.254 
0.000744943     0.800000      0.00000 
0.000353248      19.3769     -122.181 
0.000566488      13.6559     -128.817 
0.000478750      25.4633     -128.238 
0.000186491      9.76524     -145.008 
0.000272357      10.2106     -119.578 
0.000317437      16.2084     -117.324 
0.000314831      32.7248     -127.850 
0.000230252      19.5207     -127.340 
0.000565343      14.1584     -132.252 
0.000395774      16.7401     -120.118 
0.000184692      26.9185     -129.936 
0.000185467      13.7753     -117.309 
4.75608e-05      17.7665     -128.418 
9.45090e-05      24.0832     -131.634 
8.83259e-05      13.6059     -128.555 
0.000441804      20.5025     -124.186 
0.000260165      10.9457     -127.875 
0.000130379      12.2880     -126.795 
0.000133841      4.41814     -148.325 
0.000355200      13.2022     -117.031 
0.000131559      11.6638     -116.038 
4.65537e-05      18.1037     -128.541 
0.000306877      24.0710     -132.171 
0.000430436      8.57606     -143.344 
9.22648e-05      13.6676     -117.165 
0.000221819      24.3836     -131.009 
0.000127967      13.1677     -117.499 
-0.000260808      1.42436      128.157 
0.000555475      27.8305     -131.387 
0.000299732     0.178885      116.565 
0.000172867      17.3297     -124.277 
0.000220390      20.8323     -132.821 
0.000220211      24.0301     -131.491 
0.000598206      29.5975     -133.357 
0.000130519      29.0796     -131.319 
-0.000384929      1.52840      47.1211 
8.87472e-05      26.9288     -129.697 
4.52173e-05      17.8163     -128.620 
0.000552803      25.1595     -131.649 
4.51741e-05      23.6190     -132.117 
0.000211469      28.9226     -125.317 
0.000213114      23.2409     -119.035 
0.000128317      17.6916     -128.943 
8.91418e-05      30.9866     -130.393 
0.000167744      26.9799     -129.827 
0.000593552      2.76319     -112.109 
0.000462852      18.0400     -123.056 
0.000217730      24.1442     -122.690 
0.000338278      13.7388     -117.013 
8.55050e-05      29.1843     -124.953 
0.000422117      30.2490     -130.388 
8.54992e-05      17.6800     -129.308 
0.000419692      7.41631     -113.523 
0.000460538      30.9777     -130.601 
0.000417392      22.2557     -117.394 
0.000169146      9.83089     -145.275 
0.000126535      23.6423     -121.862 
4.36036e-05      11.4487     -116.565 
0.000126586      28.8804     -126.552 
0.000336045      1.55332      11.8887 
0.000209114      10.9322     -141.537 
0.000208724      19.5693     -127.526 
0.000126499      21.6717     -119.404 
0.000125059      10.5648     -144.866 
0.000125882      10.4876     -114.806 
0.000374457      22.3567     -133.115 
0.000124819      27.7175     -131.373 
4.31065e-05      16.8953     -131.160 
0.000165413      18.8136     -119.836 
0.000456599      20.8800     -133.603 
8.37987e-05      3.13637     -142.253 
0.000289340      16.1719     -117.072 
0.000248574      18.3415     -128.270 
8.38477e-05      23.1077     -132.194 
0.000165712      13.2375     -116.565 
0.000329561      24.1875     -122.849 
-0.000123599      2.02544      170.910 
0.000206788      10.7167     -149.990 
0.000124101      11.2584     -134.136 
0.000288655      10.8387     -148.891 
4.21575e-05      10.2952     -140.993 
0.000122700      4.26033     -145.713 
8.28359e-05      19.1158     -128.884 
0.000163535      31.7636     -127.736 
0.000164022      23.9772     -131.348 
0.000123574      20.8910     -132.672 
0.000122516      12.7512     -119.299 
4.16153e-05      17.8663     -128.820 
4.12802e-05      2.51078     -120.651 
8.21442e-05      22.2838     -131.070 
4.11990e-05      27.3794     -125.966 
4.11103e-05      1.36704     -110.556 
4.09289e-05      11.5569     -115.856 
4.08276e-05      16.4779     -132.442 
8.09481e-05      21.5021     -130.624 
4.06663e-05      9.08273     -121.310 
8.04326e-05      25.4738     -126.186 
4.04331e-05      19.1282     -128.548 
-4.04430e-05      1.37637      125.538 
4.03877e-05      11.2641     -137.015 
4.03293e-05      11.2695     -141.340 
8.03235e-05      15.1352     -117.378 
4.01641e-05      4.70574     -125.311 
4.01971e-05      22.3442     -130.935 
4.01679e-05      28.1793     -125.991 
