! Center RA: 12 29 06.69973,  Dec: +02 03 08.59828 (2000.0)
! Tentative model.
! Flux (Jy) Radius (mas)  Theta (deg)  Major FWHM (mas)  Axial ratio   Phi (deg) T \
! Freq (Hz)     SpecIndex
 0.0246949     0.624820     -129.806 
-0.00208402      23.5919     -122.397 
-0.00144444      23.7023     -122.456 
-0.00142643      23.2438     -121.775 
-0.00215297      23.7453     -122.619 
-0.00126560      23.2018     -121.608 
-0.000436521      23.1337     -121.711 
0.00122317     0.357771     -116.565 
-0.00119849      23.0917     -121.542 
-0.000774605      23.8127     -122.515 
-0.000387198      23.7213     -122.886 
0.00858477     0.252982     -108.435 
0.000376073     0.678822     -135.000 
-0.000372525      23.6542     -122.991 
-0.000369931      23.1600     -121.439 
-0.00167674      23.1647     -124.019 
0.00319998     0.791960     -135.000 
-0.000362549      23.6978     -123.154 
-0.000704633      23.8374     -122.250 
0.00140846      10.0080     -140.839 
-0.00101969      23.1183     -121.270 
-0.000691622      23.5871     -123.097 
-0.000342602      23.2757     -124.072 
0.000971931      10.1206     -140.774 
-0.000332970      23.7417     -123.315 
-0.000647053      23.9051     -122.148 
-0.00124801      23.6309     -123.260 
-0.000313278      23.0085     -121.203 
0.00111312      9.83349     -140.612 
0.00271367      10.2952     -140.993 
-0.000599178      23.8627     -121.985 
-0.000301973      23.0769     -121.100 
-0.000296775      23.0536     -123.966 
-0.00112232      23.5640     -123.366 
-0.00113834      19.6836     -122.721 
-0.000291547      22.9671     -121.032 
-0.000287465      23.9633     -123.425 
-0.000553482      23.1868     -121.167 
-0.000284409      22.9426     -123.912 
-0.000280850      22.7888     -121.067 
0.00220299      9.72091     -140.677 
-0.00127803      23.9729     -122.046 
-0.000476422      23.2095     -124.183 
0.00218539      25.4646     -129.391 
-0.000272642      22.6935     -121.449 
-0.000272120      19.7036     -123.238 
0.00432158     0.737564     -130.601 
0.00189423      24.7478     -130.280 
-0.000494047      19.7509     -122.596 
-0.000516625      24.0075     -123.584 
-0.000519883      19.6808     -123.561 
-0.000520035      22.8316     -123.857 
-0.000261392      22.8573     -120.964 
-0.000513724      23.6081     -123.529 
-0.00141186      19.7079     -122.400 
0.00186191      10.3457     -140.648 
-0.00150623      18.9490     -123.288 
-0.000257379      23.4318     -124.287 
-0.000492559      22.5835     -121.381 
-0.000480153      23.1455     -120.998 
-0.000712452      23.5859     -123.798 
-0.000246651      19.7252     -123.755 
-0.000689484      22.8163     -120.791 
-0.000483442      19.0160     -123.155 
-0.00154339      24.0518     -123.743 
-0.000907174      22.7206     -123.802 
-0.000237300      23.3207     -124.235 
-0.000237112      19.5259     -123.299 
-0.000234384      23.6524     -123.690 
0.000633154      24.7781     -129.498 
-0.000445228      19.3714     -123.034 
-0.000225056      19.0598     -123.357 
-0.00124132      17.0813     -121.010 
0.00269956      9.78292     -140.974 
-0.000223453      22.5420     -121.208 
-0.000222456      19.5699     -123.495 
-0.000221143      22.9260     -120.861 
-0.000423139      23.6305     -123.959 
-0.000790106      22.4736     -121.314 
-0.000404242      23.0984     -124.130 
-0.000989883      24.0832     -122.106 
0.000762846      25.0143     -129.289 
-0.000578872      23.2552     -121.065 
-0.000212745      19.7697     -123.947 
-0.000409508      22.5652     -123.577 
-0.000406875      23.6969     -123.851 
0.000942892      24.7164     -129.616 
-0.000596537      19.3521     -122.508 
0.000756558      25.1269     -129.315 
-0.000951385      18.9931     -123.489 
0.000583347      25.5772     -129.415 
-0.000393018      19.8145     -124.139 
0.000580387      10.4077     -140.928 
-0.000386425      19.7755     -122.276 
-0.000561077      22.7754     -120.619 
0.00485279      1.95305     -145.008 
-0.000559897      17.0402     -120.779 
-0.000193593      22.6096     -123.746 
-0.000192518      23.9853     -123.849 
-0.000376085      23.7415     -124.011 
-0.00117505      19.3092     -122.307 
0.000185520      24.6351     -130.258 
-0.000361674      22.4544     -123.520 
-0.000182544      22.7066     -120.721 
-0.000696450      19.8595     -124.330 
-0.00161358      24.0963     -123.901 
0.000635033      24.2968     -130.192 
-0.000526229      23.6753     -124.120 
-0.000520655      21.7266     -122.520 
0.000178613      10.4479     -139.970 
-0.000884573      23.1044     -120.828 
0.000347733      25.6391     -129.302 
-0.000175453      22.9873     -124.077 
-0.00238488      17.1525     -124.357 
-0.000948147      24.1258     -122.267 
0.00117641      10.4995     -139.635 
-0.000336920      22.3435     -123.462 
0.000169765      24.5223     -130.236 
-0.000619730      17.0683     -120.411 
-0.000913400      22.6659     -120.548 
-0.000332372      24.0300     -124.007 
-0.000167096      19.8184     -122.471 
0.000903543      24.2453     -130.048 
0.000478261      2.01911     -146.310 
0.000317661     0.160000     -90.0000 
-0.000163618      23.5430     -124.338 
-0.000316677      22.5006     -121.034 
0.000753993      25.5885     -129.163 
0.00152693     0.240000     -90.0000 
-0.000611912      21.7697     -122.697 
-0.000160930      17.0451     -122.347 
0.00126610      24.6654     -129.472 
-0.000160408      22.1887     -123.232 
-0.000160043      23.7864     -124.171 
-0.000313906      18.7946     -123.014 
0.00163132      1.84174     -124.380 
-0.000728521      19.9707     -124.390 
-0.000156040      23.7202     -124.280 
-0.000447803      22.2327     -123.404 
0.000685402      24.1326     -130.024 
-0.000883659      19.3769     -122.181 
-0.000552115      23.3658     -124.397 
-0.000153010      19.9047     -124.520 
-0.000554441      23.8314     -124.330 
-0.000411074      19.2148     -123.624 
-0.00197826      10.8641     -126.617 
0.00237862      10.1827     -141.059 
-0.000288574      21.6592     -122.634 
-0.000487889      11.1682     -131.225 
-0.000282920      18.6839     -122.942 
-0.00101819      23.7654     -124.439 
-0.000545597      22.4595     -120.859 
-0.000283169      18.7079     -122.603 
-0.000542658      11.9522     -132.016 
0.00185073      9.67041     -141.044 
-0.00297221      11.8988     -131.730 
-0.000139385      22.7652     -123.969 
-0.000522355      17.1374     -120.276 
-0.000524089      22.1218     -123.345 
-0.000136932      23.2141     -120.896 
0.000493576      10.6123     -139.586 
-0.000405194      22.7348     -120.445 
0.000263155      25.6506     -129.051 
-0.000261722      24.1686     -122.428 
-0.000370087      21.6161     -122.455 
-0.00165988      20.0160     -124.579 
-0.000248924      18.6649     -122.396 
-0.000975737      19.2666     -122.106 
-0.000130704      22.0111     -123.286 
-0.000381288      23.8766     -124.489 
0.000129892      23.9685     -129.855 
-0.000254095      21.6806     -124.628 
-0.000254860      18.6405     -122.735 
-0.000539400      19.3344     -121.980 
-0.000126857      22.6253     -120.373 
-0.000365723      16.7743     -123.917 
0.000475330      23.5691     -129.905 
0.000958251      1.90830     -123.024 
-0.000378893      11.2211     -131.532 
0.000682889      29.0870     -133.440 
-0.000863186      17.1978     -124.577 
0.000572450      25.6003     -128.911 
-0.000191458      22.5563     -120.476 
-0.000123276      24.1935     -122.166 
-0.000350704      21.9236     -124.444 
-0.000234999      24.1628     -123.795 
-0.000727565      17.0024     -122.120 
-0.000351873      1.84694     -162.350 
-0.000547728      21.5693     -124.574 
-0.000763285      22.4186     -120.683 
-0.000232503      18.6168     -123.075 
-0.000433430      22.1659     -123.518 
-0.000183891      23.8107     -124.598 
-0.000117729      21.6352     -124.454 
-0.000546242      16.3578     -118.320 
-0.000117114      22.0551     -123.460 
0.000446375      22.6828     -130.996 
-0.000598052      24.2362     -122.326 
0.00163440     0.178885     -116.565 
-0.00225636      1.79778     -159.146 
-0.000421213      23.0635     -120.657 
-0.000209507      22.2768     -123.576 
-0.000422360      17.3090     -124.645 
0.000323920      24.6037     -129.591 
-0.000712117      16.6188     -123.614 
-0.000320824      10.9120     -126.954 
-0.000565393      22.8443     -120.516 
-0.00127296      21.9447     -124.154 
0.000486983      22.7956     -131.016 
-0.000844908      18.6221     -122.188 
0.000107136      29.1452     -133.332 
0.000473524      24.9017     -129.264 
-0.000105995      17.0573     -119.812 
-0.000104977      18.5938     -123.417 
0.000566334      23.5078     -130.030 
-0.000104476      11.2686     -132.410 
0.000572700      29.2001     -133.446 
-0.000348357      21.8785     -124.271 
0.000802572      1.88807     -126.384 
0.000193634      24.0812     -129.879 
-0.000545211      21.5035     -124.695 
0.000291431      25.5501     -128.772 
0.000194595      10.4387     -139.351 
-0.000572925      11.1763     -130.646 
0.000455026      22.7353     -131.148 
-0.000759018      24.2074     -123.953 
-0.00146857      16.3200     -118.072 
0.000731397      27.9012     -133.257 
-0.000245389      21.5487     -122.569 
-0.000188338      22.4874     -120.579 
-0.000370151      20.9068     -125.028 
0.000179696      24.4911     -129.566 
-0.000366876      10.3175     -123.936 
-0.000273015      17.3547     -124.862 
0.000180354      24.1939     -129.903 
-0.000182558      11.3738     -133.575 
-0.000731895      22.3778     -120.507 
-0.000410848      23.6995     -124.548 
-0.000516373      11.1341     -129.753 
-0.000467142      22.2102     -123.690 
-0.000249033      23.8526     -124.063 
0.000536087      25.6125     -128.660 
-0.000489124      20.0615     -124.767 
-8.92274e-05      17.1665     -119.910 
-8.90419e-05      23.5882     -124.499 
-0.000170861      24.1411     -124.059 
-0.000758315      16.4639     -123.304 
8.82499e-05      24.3066     -129.926 
0.000930579      10.3781     -139.063 
-0.000652061      22.4468     -120.403 
-0.000170953      10.2731     -123.566 
-8.74005e-05      12.2376     -131.820 
-8.69691e-05      22.9539     -120.587 
-0.000353302      11.0089     -127.619 
-0.00108272      20.9528     -125.207 
-0.000530111      17.0413     -124.287 
-0.000167654      10.2065     -123.815 
-0.00132454      13.5540     -130.931 
-0.000164087      11.3228     -132.709 
8.52328e-05      29.1421     -133.554 
0.000204518      22.9085     -131.035 
0.000633082     0.688186     -125.538 
0.000650743      1.95305     -124.992 
-0.000631061      9.38765     -122.471 
-8.47137e-05      17.2757     -120.008 
-0.000207225      21.5733     -122.276 
-0.000530392      17.5120     -125.142 
0.000396044      12.7512     -119.299 
-0.000517620      16.9347     -122.264 
0.00202165      6.25843     -122.471 
-0.000606394      12.3506     -131.849 
0.000316170      29.2552     -133.560 
0.000570510      12.5365     -123.284 
0.00356276      17.0897     -133.483 
-0.000308357      13.5465     -131.409 
8.24323e-05      24.1426     -129.757 
0.000667730      10.2450     -141.340 
-8.14651e-05      17.3851     -120.105 
0.00187947      4.31259     -139.514 
0.000337677      10.8379     -139.490 
-0.000195545      18.6476     -121.849 
-0.000372002      23.9637     -124.114 
8.04658e-05      24.4295     -129.685 
-0.000137141      23.5223     -124.609 
0.000483557      23.4466     -130.156 
-7.97477e-05      22.3211     -123.747 
-0.000650056      10.1622     -123.440 
7.91607e-05      24.0300     -129.732 
0.00262154      14.0509     -120.069 
-0.000357943      22.9133     -120.415 
0.000369142      22.8482     -131.167 
-0.000422085      21.4378     -124.817 
-0.00102152      8.33115     -131.496 
-7.80269e-05      17.3451     -119.876 
-0.000144770      23.9189     -123.956 
7.72484e-05      23.9789     -129.585 
-0.000216397      22.1437     -123.805 
-0.000204052      22.8038     -120.343 
-0.000997360      2.34196     -172.147 
-0.000186974      10.9603     -127.288 
7.61098e-05      8.25978     -111.595 
0.000471230      25.5626     -128.520 
7.56316e-05      24.3168     -129.661 
-0.000145285      24.3038     -122.225 
-0.000770828      18.6899     -122.057 
-7.54453e-05      22.0109     -124.037 
7.53453e-05      10.7251     -139.538 
-7.47651e-05      23.7449     -124.707 
0.000854849      8.15608     -111.280 
-0.000342592      10.5615     -123.570 
-0.000147428      17.4543     -119.973 
0.000211184      23.9280     -129.438 
-0.00225560      1.72325     -158.199 
7.36369e-05      29.1079     -132.327 
0.000210857      14.7903     -121.283 
0.000546204      7.44860     -114.087 
0.00149238     0.226274     -135.000 
0.00110529      9.26136     -109.687 
0.000948538      12.7122     -118.985 
0.00141019      8.81344     -113.540 
7.19199e-05      24.3785     -129.541 
-0.000197881      24.2738     -123.847 
0.000203147      25.6750     -128.548 
7.09994e-05      29.3683     -133.565 
-0.000135309      1.84694      4.96974 
0.000820516      2.18358     -118.443 
0.00183285      1.93659     -128.290 
-0.000262282      17.4145     -119.745 
-0.000733663      22.3373     -120.330 
-0.000261151      20.1072     -124.955 
0.000135337      29.1671     -132.221 
0.000137284      23.9899     -129.316 
-0.000257116      12.2974     -131.572 
-0.000166922      23.4110     -124.559 
0.000903409      12.6915     -123.690 
-0.000327493      27.7447     -127.266 
0.000482210      9.15921     -109.385 
-0.000135039      11.8457     -131.441 
6.80035e-05      29.0290     -133.548 
-0.000258650      8.39123     -131.135 
-0.000324226      30.0240     -124.579 
0.000502793      17.6787     -131.698 
0.000259917      22.7881     -131.299 
0.000801159      2.14663     -116.565 
-0.000254567      17.6234     -125.205 
0.000183504      24.3276     -129.395 
-0.000473478      16.9964     -124.064 
0.000190655      7.73315     -114.444 
0.000543691      11.2345     -104.432 
0.000190582      10.3076     -141.618 
-6.48237e-05      16.9392     -119.107 
-0.000568942      22.8729     -120.242 
-0.000121602      19.4872     -122.255 
-0.000124669      23.8975     -124.222 
0.000165342      23.8773     -129.289 
0.000178673      29.1134     -132.104 
-0.000239386      22.2547     -123.861 
0.000177783      14.7489     -121.017 
0.00122236      2.25424     -117.474 
-0.000280406      16.9101     -122.638 
-0.000450294      10.1183     -123.062 
-0.000499478      11.7328     -131.406 
-6.24330e-05      19.1988     -122.233 
0.000176929      29.0842     -133.663 
-0.000121617      23.3108     -120.525 
0.00128943      2.72118     -114.305 
-0.000118154      21.9897     -124.326 
0.000111060      24.8512     -129.121 
-0.000619791      16.9534     -122.865 
0.000473391      7.65078     -111.468 
6.09414e-05      7.62060     -116.834 
-0.00130190      27.6963     -127.135 
-0.00103098      30.4692     -124.733 
-0.000387087      7.47048     -133.264 
-0.000385279      29.9127     -124.540 
0.000231582      10.3704     -141.892 
0.000176061      23.9393     -129.168 
0.000118857      7.65705     -117.368 
-0.000112596      24.2521     -124.109 
0.000225552      22.6151     -131.415 
0.000402772      9.60833     -140.744 
-0.000165045      17.5581     -125.356 
-0.000272015      19.5300     -122.453 
-0.000214507      10.5845     -122.969 
-0.000346633      21.4835     -124.992 
-0.000163902      17.0481     -119.211 
-0.000171682      16.4201     -123.071 
-0.000276704      22.1883     -123.977 
0.000193469      14.6391     -120.910 
5.83531e-05      7.38474     -112.954 
5.81766e-05      10.0702     -141.127 
5.79171e-05      29.2264     -132.115 
0.000333582      7.69415     -117.897 
0.000688850      10.8900     -139.170 
0.00172603      17.6191     -131.871 
-0.000166898      23.2702     -120.356 
-0.000265279      7.35739     -133.238 
-0.000163124      17.6697     -125.417 
-0.000264153      21.0643     -125.259 
-0.00131127      2.42124     -172.405 
-0.000155397      17.3749     -119.516 
-0.000848504      8.27836     -131.082 
-0.000153733      1.76726      5.19443 
-5.65563e-05      20.2646     -125.196 
-0.000308772      11.1243     -130.333 
5.64150e-05      22.9611     -131.186 
-5.60069e-05      17.9314     -124.824 
0.00199691      7.35391     -112.380 
0.000214461      10.4335     -142.164 
-0.000105448      24.3184     -124.004 
-5.54694e-05      20.9990     -125.385 
0.000342026      19.5658     -129.026 
-0.000150153      21.5307     -122.096 
0.000246037      11.2547     -104.826 
0.00147409      19.6281     -128.879 
-0.00127256      20.4877     -125.304 
0.000107458      23.8888     -129.019 
0.00157402      6.19109     -122.869 
-0.000304962      16.3094     -122.989 
0.000153603      23.0214     -131.055 
0.000106713      25.6252     -128.408 
-0.000199597      18.0428     -124.888 
-0.00133524      13.8307     -128.660 
0.000152039      27.8464     -133.137 
-5.39092e-05      19.1312     -122.361 
0.000779299      1.88807     -143.616 
-0.000412155      16.9005     -118.870 
-0.000215020      21.5057     -122.389 
0.000448159      7.73191     -118.421 
-0.000103544      23.3393     -120.256 
9.87327e-05      29.4814     -133.571 
0.000102718      22.5022     -131.397 
0.000457174      14.5982     -120.641 
5.15683e-05      28.9710     -133.657 
5.12053e-05      24.2769     -129.250 
-0.00106006      9.43084     -122.881 
0.000452294      2.61565     -113.429 
-0.000100074      24.0087     -124.273 
5.07922e-05      29.1728     -131.999 
0.000246492      10.4968     -142.431 
-0.000141391      21.8336     -124.098 
0.000318677      25.5129     -128.379 
-9.87933e-05      22.2993     -124.032 
-0.000154600      16.2118     -117.956 
-5.02231e-05      12.3573     -131.325 
0.000188907      10.4910     -139.020 
-5.01299e-05      19.9303     -125.030 
-0.000504939      23.2991     -120.087 
0.000368808      22.5552     -131.549 
-0.00102009      6.62456     -132.553 
-0.000233718      16.9302     -124.216 
0.000190302      14.9551     -120.543 
-0.000314696      22.2331     -124.148 
-0.000321373      17.6045     -125.568 
-0.000452211      32.0615     -129.330 
0.000436190      1.98716     -130.101 
4.87289e-05      29.0598     -131.987 
-0.000258021      10.0077     -122.928 
-9.47927e-05      21.5491     -124.870 
0.000139059      24.2264     -129.103 
-0.000337099      12.4103     -131.603 
-0.000215352      23.4565     -124.720 
-0.000581212      31.7781     -127.533 
0.000747552      9.54652     -140.440 
-0.000526418      9.08273     -148.690 
0.000248210      29.0263     -133.772 
-0.00104974      6.73760     -132.594 
-4.78991e-05      29.8674     -124.414 
0.000136826      23.8385     -128.870 
-0.000140043      24.2310     -124.372 
-9.31951e-05      22.8327     -120.069 
0.000758357      16.2921     -134.602 
0.000315947      10.5603     -142.696 
-0.000555397      16.2660     -122.752 
4.70326e-05      12.6736     -118.668 
-0.000128668      6.51153     -132.510 
-0.000320833      19.8189     -124.973 
-9.00593e-05      31.8903     -127.560 
-4.66535e-05      18.9782     -122.082 
0.000173770      24.8630     -128.861 
0.00114467      7.77030     -118.940 
-0.000114486      21.1106     -125.437 
-0.000174899      29.7111     -124.246 
-0.000319591      23.9879     -124.538 
8.67947e-05      23.8267     -129.141 
-0.000382508      9.76918     -148.392 
0.000203982     0.329848     -165.964 
-0.000342729      19.5976     -122.328 
0.000168973      29.1193     -131.882 
-0.00224378      15.9587     -136.625 
-0.000116378      22.2970     -120.153 
-0.000278311      10.7290     -120.964 
0.000712777      4.40581     -119.358 
-0.000205465      18.0887     -125.096 
0.000404120      15.0240     -120.388 
-0.000126279      7.30282     -132.780 
0.000755437      3.79389     -114.944 
-8.76051e-05      9.29447     -131.511 
-0.000376916      16.9753     -124.439 
-0.000276098      24.2763     -124.528 
0.000194495      14.4481     -120.256 
0.000269950      3.18798     -107.526 
-4.34225e-05      24.3626     -123.481 
4.32696e-05      12.5806     -123.589 
-0.000217061      20.5992     -125.357 
-0.000302058      10.6604     -121.185 
-0.000317589      30.3579     -124.695 
-0.000901304      9.24995     -130.440 
-4.28156e-05      24.1650     -124.479 
0.00135853      1.01193      108.435 
0.000721170      8.78180     -113.062 
0.000476367      10.6240     -142.958 
-0.000160360      22.8621     -119.795 
0.000125583      23.7763     -128.991 
0.00114952      17.1478     -133.299 
-0.000198303      9.20869     -129.359 
-4.18298e-05      23.2591     -119.916 
-0.000816061      19.0460     -121.954 
4.16251e-05      23.1403     -127.979 
-0.000266862      8.33883     -130.721 
0.000480933     0.407922     -168.690 
4.13005e-05      24.1258     -128.808 
0.000188473      25.7376     -128.437 
0.000424484      22.4954     -131.684 
-0.000859592      23.3285     -119.818 
-0.000190752      17.5395     -125.720 
-0.000744734      28.3689     -127.322 
-0.000187037      21.1758     -125.311 
0.000193711      9.89545     -140.906 
-4.04638e-05      6.68371     -132.089 
-4.03534e-05      29.6662     -124.119 
-7.48720e-05      19.7731     -124.783 
0.000113193      29.5394     -133.464 
-0.000240968      23.3452     -124.670 
3.99155e-05      27.8236     -131.620 
-3.98264e-05      17.6512     -125.779 
-0.000555496      29.5134     -122.829 
-3.97375e-05      22.0558     -124.209 
-0.000275930      20.5340     -125.486 
3.92895e-05      12.4258     -123.179 
-3.93267e-05      22.3442     -124.202 
-0.000147403      11.1157     -130.914 
-0.000297139      6.57072     -137.961 
0.00177845      3.34090     -106.699 
9.44904e-05      24.2885     -128.984 
-7.57783e-05      24.4068     -123.638 
0.000149028      23.9586     -130.124 
0.000112089      23.0912     -127.823 
-0.000490666      13.6066     -131.186 
-0.000181964      16.2228     -122.515 
-7.53658e-05      22.4104     -124.087 
0.000458245      28.6396     -129.560 
0.000671430      9.48498     -140.133 
-3.77356e-05      30.8032     -124.846 
7.19360e-05      10.4307     -138.731 
0.000108324      12.3151     -123.071 
0.000348235      27.7705     -131.496 
-0.000320730      1.68760      5.44033 
3.70082e-05      23.7260     -128.841 
-0.000164715      21.7888     -123.923 
7.22895e-05      12.7361     -123.990 
0.000103229      24.2383     -128.837 
0.000172250      16.6924     -133.641 
-0.000787826      16.3555     -128.047 
-0.000384916      31.9997     -129.420 
-0.000174060      16.2477     -122.125 
0.000466613     0.720000      180.000 
-0.000186671      11.6198     -131.371 
-0.000138465      18.1348     -125.303 
0.000308733      10.6880     -143.216 
-0.000715920      9.25963     -129.742 
0.00141392      8.02436     -110.422 
-3.63011e-05      30.8490     -124.968 
0.000262578      12.7822     -118.811 
-0.000385673      22.4554     -124.256 
-3.62363e-05      16.2904     -122.363 
-6.94664e-05      22.8224     -119.620 
-7.07686e-05      17.0206     -124.661 
-0.000861658      10.7772     -130.786 
-0.000127826      22.4064     -120.227 
9.18085e-05      24.9133     -129.005 
-6.92346e-05      24.3854     -123.221 
-0.000518890      19.0038     -121.750 
-0.000219778      17.5864     -125.932 
-0.00151707      4.21046     -128.830 
0.000129530      23.9493     -130.394 
0.000133279      23.0281     -127.945 
-0.000102105      6.63035     -138.424 
0.000790863      15.0647     -120.651 
0.000191056      29.0241     -133.995 
0.000133670      1.82428     -142.125 
9.81598e-05      29.5061     -132.253 
-3.42824e-05      30.9146     -124.883 
0.000110823      9.95767     -141.196 
3.39433e-05      23.6260     -128.539 
-9.81291e-05      24.2104     -124.635 
0.000271762      12.2481     -123.275 
-0.000188609      8.39962     -130.365 
-0.00143413      6.57754     -138.945 
-0.000372851      21.2222     -125.487 
3.35761e-05      10.3212     -142.242 
0.000383497      10.9425     -138.853 
-0.000183675      30.9099     -124.348 
-6.63108e-05      17.0663     -124.882 
-0.000348394      16.2053     -121.885 
-0.000216449      16.4049     -128.267 
0.00184326      6.53067     -120.964 
6.46023e-05      28.7013     -129.458 
0.000687542      19.5156     -128.843 
3.27673e-05      23.6886     -128.418 
6.39819e-05      16.4053     -134.605 
0.000614895      14.0911     -120.350 
-0.000179270      24.0333     -124.695 
-3.25958e-05      30.9551     -124.470 
-3.25285e-05      16.3421     -128.441 
-3.25010e-05      22.8920     -119.521 
0.000130537      10.1458     -142.046 
0.000289471      28.5779     -129.662 
-0.000377244      9.15117     -148.950 
-3.22888e-05      17.1121     -125.102 
-0.000198844      24.4294     -123.378 
-0.000312412      30.4035     -124.819 
0.000402578      16.5793     -133.631 
0.000241606      25.8003     -128.327 
-3.19378e-05      17.1583     -125.320 
0.000228943      10.2090     -142.322 
3.17849e-05      1.77629     -144.162 
6.26848e-05      23.5763     -128.387 
0.000404515      18.0243     -131.401 
0.000113656      14.4886     -120.530 
-3.15973e-05      18.0696     -125.449 
3.15868e-05      10.4482     -142.779 
-0.000146162      21.7443     -123.749 
-0.000149570      22.8527     -119.347 
-0.000333898      24.3217     -124.683 
6.19000e-05      10.7522     -143.471 
0.000734461      1.69706     -45.0000 
-0.000143658      27.8084     -127.167 
3.11806e-05      24.1882     -128.689 
0.000636546      1.71207     -142.595 
-3.11628e-05      21.6118     -123.219 
-0.000263640      16.1800     -122.276 
-9.15282e-05      17.2047     -125.538 
5.98926e-05      27.6787     -133.009 
3.08251e-05      8.18545     -111.801 
0.000288175      9.37230     -140.194 
0.000107834      3.11178     -107.969 
-5.74256e-05      18.6196     -124.851 
0.000222679      22.9789     -127.788 
6.09348e-05      28.7631     -129.357 
-0.000145601      31.8269     -127.648 
-0.000635334      9.83740     -148.637 
0.000218139      9.28862     -110.152 
0.000302230      19.8653     -128.624 
0.000975311      9.42371     -139.821 
0.000224397      10.2724     -142.595 
-0.000204326      23.2888     -119.647 
-0.000144078      18.1161     -125.655 
3.02086e-05      23.5267     -128.234 
0.000543344      7.80933     -119.454 
0.000349132      3.33802     -135.971 
0.000283483      28.8757     -129.379 
0.000512633      12.8142     -118.325 
0.000595611      8.32000     -112.620 
0.000172458      10.9284     -143.633 
-5.39247e-05      16.8620     -118.632 
0.000227725      24.1513     -128.274 
-0.000664714      6.85063     -132.634 
-0.000197037      17.2513     -125.754 
0.000450695      29.9232     -128.923 
0.000105286      29.5975     -133.357 
-0.000173991      19.1140     -121.827 
-0.000146497      19.5549     -122.130 
0.000589213      19.8155     -128.443 
-0.000111443      8.67253     -127.504 
-0.000161626      29.5806     -122.745 
2.88731e-05      23.6759     -128.690 
-0.000217100      3.55077     -157.479 
-0.000860891      28.3205     -127.194 
7.46608e-05      23.1343     -131.074 
0.000871504      18.2744     -130.384 
0.000136049      8.75077     -112.580 
-7.93147e-05      16.8190     -124.144 
-8.15620e-05      31.9881     -127.787 
-0.000133882      8.51239     -130.426 
-0.000126035      21.6333     -123.690 
8.06364e-05      15.3327     -133.943 
8.02598e-05      24.1018     -128.125 
-0.000804900      30.8862     -124.019 
0.000341323      4.36715     -118.443 
-5.35162e-05      29.4227     -123.128 
-2.78411e-05      16.8671     -122.409 
5.48115e-05      23.5896     -128.114 
-0.000339291      22.8136     -119.172 
8.05741e-05      22.5486     -131.836 
-0.000328196      23.3584     -119.550 
-0.000229201      22.5005     -124.425 
2.75211e-05      29.8730     -128.804 
-0.000127072      17.6334     -126.142 
-0.000612677      6.63807     -139.399 
5.38436e-05      23.0740     -131.205 
0.000146386      29.0798     -134.108 
7.59361e-05      9.18608     -109.855 
0.000719745      4.42538     -139.399 
-0.000316185      32.6479     -128.134 
0.000213936      13.9817     -120.233 
0.000203448      10.9929     -143.881 
2.67862e-05      16.2361     -134.401 
-0.000250536      17.2981     -125.969 
2.65258e-05      27.4614     -132.521 
-0.000223211     0.865332     -56.3099 
-2.63271e-05      18.0511     -125.803 
-0.000551638      13.7809     -128.400 
5.16429e-05      12.2922     -123.587 
5.12856e-05      23.4772     -128.080 
5.14940e-05      15.8457     -133.363 
-0.000250655      27.7601     -127.035 
-4.93793e-05      8.72147     -127.921 
5.07663e-05      27.4074     -132.397 
2.56814e-05      22.9159     -133.727 
-0.000122568      18.0334     -126.158 
0.000100780      28.9883     -129.401 
0.000481613      19.8782     -128.300 
0.000277107      10.0829     -141.766 
0.000300461      22.9158     -127.910 
-4.95103e-05      31.6660     -127.507 
4.87014e-05      23.0005     -131.898 
-7.15912e-05      8.65850     -128.246 
0.000539788      4.37374     -140.194 
-0.000118286      29.4462     -122.913 
-0.000128290      19.1563     -122.031 
0.000227951      8.64629     -112.294 
0.000123784      28.5164     -129.764 
-4.65679e-05      17.7452     -126.198 
-2.50088e-05      18.7577     -121.928 
0.000319989      14.5294     -120.801 
0.000331634      15.7908     -133.152 
0.000283528      22.9713     -133.871 
-0.000423139      3.62480     -157.964 
0.000296078      10.2880     -143.219 
2.49423e-05      8.16549     -138.972 
-2.48976e-05      22.1009     -124.380 
0.000299060      16.5242     -133.431 
-7.21787e-05      32.0372     -127.900 
-0.000172604      24.3875     -124.576 
0.000335137      12.2256     -123.794 
-0.000180267      8.62517     -130.486 
0.000114031      22.4357     -131.820 
-9.18676e-05      17.9280     -123.903 
0.000294523      28.4653     -129.641 
-9.06867e-05      24.4735     -123.534 
2.43814e-05      27.3536     -132.274 
-0.000300818      16.1632     -121.645 
4.77620e-05      25.7508     -128.187 
-0.000391709      23.3190     -119.379 
7.00242e-05      15.3904     -133.736 
-8.79198e-05      8.46073     -130.014 
0.000155903      28.9376     -129.278 
0.000288701      27.3057     -131.912 
0.000919804      5.66420     -126.384 
0.000950791      3.86657     -114.444 
2.38385e-05      23.4280     -127.926 
-0.000286400      1.60798      5.71059 
-2.37008e-05      11.5069     -131.336 
0.000136190      11.0577     -144.125 
2.36001e-05      8.10531     -138.601 
0.000278307      1.87275     -19.9831 
-4.63881e-05      31.5538     -127.480 
-0.000337034      21.1571     -125.613 
0.000464331      3.39600     -136.909 
-0.000129665      22.2315     -118.594 
-6.63932e-05      17.8570     -126.254 
-0.000413754      17.3452     -126.183 
-0.000144273      29.6480     -122.661 
0.000232239      29.8107     -128.900 
-0.000429823      9.19826     -130.061 
0.000691548      30.7204     -131.411 
-0.000318322      17.9689     -126.309 
-6.24708e-05      16.7535     -118.523 
0.000586077      9.21356     -110.323 
-8.69136e-05      32.0864     -128.013 
-0.000104996      22.4345     -124.540 
0.000179053      23.0540     -132.046 
-0.000206360      31.6025     -127.595 
0.000192972      10.3522     -143.484 
0.000437032      1.64924     -140.906 
-0.000864741     0.823650     -60.9454 
0.000135582      26.2235     -132.156 
-0.000234626      21.6778     -123.866 
0.00152435      1.75454     -43.1524 
0.000231422      7.99240     -138.652 
2.20914e-05      11.2755     -105.219 
0.000113907      23.3789     -127.772 
0.000289460      15.1335     -120.496 
-0.000466029      21.5307     -129.724 
-0.000582764      1.64924     -157.166 
0.000196604      15.4458     -133.951 
0.00135932      2.13467     -12.9946 
6.34324e-05      24.1648     -128.008 
-0.000132837      22.5458     -124.592 
-0.000256343      29.3791     -122.998 
0.000319981      22.9137     -134.010 
0.000860542      12.8524     -118.639 
-4.23928e-05      16.1374     -122.035 
0.000103156      9.36273     -139.505 
0.000181628      11.1226     -144.367 
-0.000101343      9.21980     -149.207 
-0.000189974      23.2799     -119.208 
0.000338743      7.94944     -110.624 
-3.94782e-05      31.9379     -129.512 
0.000249613      3.48804     -143.393 
9.72981e-05      25.7645     -127.937 
-0.000114529      17.8835     -123.690 
0.000246735      29.0501     -129.301 
-0.000172086      8.73796     -130.544 
0.000292744      24.1156     -127.858 
0.000376471      19.8287     -128.118 
-5.98813e-05      17.6807     -126.351 
6.00469e-05      29.1355     -134.221 
-0.000377268      3.63626     -129.644 
-0.000562334      8.79018     -130.941 
0.000153907      4.32962     -117.512 
4.04135e-05      30.2105     -128.873 
-0.000383717      2.78625     -140.826 
2.03982e-05      7.90706     -117.084 
-0.000451250      32.1357     -128.125 
0.000117012      8.61626     -111.801 
-3.93380e-05      10.6192     -120.816 
-5.74054e-05      17.5689     -126.296 
-0.000111749      22.7747     -118.996 
-7.20196e-05      22.2574     -124.604 
0.000101979      12.8847     -118.156 
0.000218589      29.7485     -128.997 
0.000378414      9.28827     -137.793 
0.000116078      25.7249     -128.688 
-6.77663e-05      11.5671     -131.074 
0.000268322      15.7362     -132.940 
-1.98281e-05      32.2880     -126.842 
0.000165896      2.75507     -115.821 
-0.000352962      23.0873     -118.341 
-1.97276e-05      27.8722     -127.067 
-7.35303e-05      16.7567     -122.324 
0.000110568     0.989545      104.036 
-0.000193760      27.8240     -126.936 
1.93122e-05      30.2607     -128.991 
0.000113842      27.7175     -131.373 
-9.08546e-05      17.4571     -126.240 
-6.72073e-05      24.5177     -123.690 
5.47899e-05      9.31098     -139.879 
-0.000881004      1.06733     -12.9946 
-3.73446e-05      8.70825     -128.660 
-0.000294626      22.3018     -118.496 
-0.000871771      31.5392     -127.684 
-0.00105368      23.0494     -118.166 
-1.87816e-05      8.40952     -129.596 
0.000238196      29.0782     -134.331 
0.000122505      30.3230     -128.896 
0.000232670      11.3645     -144.744 
1.87031e-05      7.94380     -117.597 
0.000108237      19.4655     -128.660 
0.00107738      15.1056     -120.912 
-1.86367e-05      32.2401     -126.728 
0.000492679      12.0226     -110.244 
-3.58290e-05      16.8238     -118.393 
-0.000163108      22.3687     -124.656 
-5.42714e-05      9.32952     -149.036 
-0.000275823      29.7585     -122.707 
-6.89892e-05      13.6594     -131.438 
0.000376686      1.79778     -20.8545 
8.68887e-05      14.4198     -120.691 
-5.35372e-05      16.1213     -121.403 
0.000709156      22.8667     -127.752 
3.60141e-05      29.6360     -128.974 
0.000228256      10.0201     -141.483 
5.36157e-05      8.63296     -110.618 
0.000201602      16.4662     -133.622 
-1.80650e-05      10.6880     -120.596 
8.50923e-05      19.8917     -127.976 
5.22381e-05      9.46066     -138.085 
-1.78133e-05      32.3521     -126.757 
0.000103323      11.7839     -145.231 
-1.77108e-05      10.3723     -121.115 
-6.46415e-05      8.75845     -129.068 
0.000388727      1.58795     -139.086 
0.00103214      4.29325     -116.565 
9.87329e-05      23.1077     -132.194 
-0.000368367      17.9045     -126.460 
-0.000152844      21.6114     -123.984 
-0.000671062      4.16077     -127.972 
-5.09289e-05      31.6510     -129.565 
0.000121788      29.5738     -129.071 
0.000269657      27.2523     -131.787 
0.000101158      8.60511     -110.120 
0.000595243      3.55258     -144.162 
-0.000131686      1.53883      8.97263 
0.000854786      2.15407      15.0685 
0.000296980      19.4031     -128.807 
-8.19436e-05      10.5096     -120.665 
9.70482e-05      1.60000     -36.8699 
5.02478e-05      14.1317     -120.630 
-3.33740e-05      8.29689     -129.523 
-0.000206147      9.39821     -149.287 
-1.70533e-05      16.2495     -118.205 
0.000190903      25.7786     -127.688 
-5.72406e-05      32.3043     -126.643 
-0.000219320      29.2684     -122.952 
-0.000374546      17.8393     -123.476 
-0.000212253      16.4185     -127.875 
0.000124477      12.1592     -124.004 
0.000179470      6.12405     -123.275 
-4.72446e-05      16.7141     -122.093 
0.000220715      9.40128     -137.759 
0.000105511      14.4608     -120.964 
-0.000289820      22.4800     -124.708 
0.000176738      29.4613     -129.049 
0.000622930      11.8953     -145.134 
7.83427e-05      23.2613     -133.188 
-0.000129595      14.8054     -128.418 
-4.76437e-05      31.5894     -129.657 
-3.07920e-05      22.6660     -118.917 
0.000293184      26.2829     -132.039 
-3.14785e-05      10.7976     -120.745 
0.000139936      8.57793     -109.618 
-4.53000e-05      7.76041     -142.539 
-8.47612e-05      8.85076     -130.601 
-6.18099e-05      16.1897     -121.255 
-0.000323337      6.79200     -133.091 
-0.000726213      26.0521     -124.617 
3.17689e-05      15.6778     -133.139 
0.000158217      14.2413     -120.743 
-6.02336e-05      16.7859     -118.153 
-0.000183492      8.90303     -130.992 
-9.74323e-05      17.5045     -126.451 
4.54902e-05      30.4355     -128.919 
-0.000225740      27.9360     -126.968 
-0.000145415      7.87259     -142.431 
-8.49162e-05      6.32456     -145.305 
0.000230146      15.6232     -132.925 
-0.000116307      1.68190     -154.654 
-0.000241050      16.1483     -121.012 
-0.000289755      14.4554     -128.709 
-0.000287925      1.52840      6.00901 
0.000209364      16.5215     -133.823 
-0.000655902      3.68782     -130.601 
4.28583e-05      11.1877     -144.605 
-0.000371075      21.3480     -132.418 
0.000194247      30.2567     -127.264 
0.000714769      9.22917     -137.459 
-0.000130420      10.4690     -120.288 
-4.40628e-05      26.4000     -126.870 
-4.42132e-05      31.5384     -129.545 
0.000172432      1.30231      100.620 
-0.000113861      21.5757     -125.340 
0.000175831      23.3161     -133.332 
-1.49357e-05      10.4000     -120.510 
-2.87371e-05      24.4534     -124.470 
0.000158157      11.8497     -145.452 
-2.83147e-05      8.35876     -129.174 
0.000628781      8.55140     -109.113 
-0.000393573      2.84872     -141.843 
-0.000160036      32.5851     -128.220 
0.000336403      1.55332     -34.5085 
1.46812e-05      23.1268     -131.354 
0.000140433      27.2462     -132.025 
-5.29580e-05      8.05263     -130.972 
-0.000157886      14.5679     -128.758 
-9.81878e-05      10.9647     -119.745 
-0.000320429      29.8690     -122.754 
0.000117410      10.4166     -143.746 
0.000286122      12.2041     -124.315 
-0.000273740      9.94738     -148.483 
1.42726e-05      12.4533     -137.083 
0.000391618      29.3488     -129.026 
0.000218081      20.5793     -127.895 
1.41128e-05      24.1788     -127.742 
0.000367868      12.3948     -136.831 
-0.000118736      31.4767     -129.638 
-0.000381671      21.7225     -124.041 
-0.000175363      26.5120     -126.904 
0.000106509      15.5014     -134.164 
-0.000175864      22.4103     -118.578 
-0.000782473      5.08110     -146.560 
-0.000166903      1.45986      9.46232 
-0.000134599      32.1852     -128.237 
-0.000138021      17.3926     -126.396 
2.57582e-05      29.2867     -129.124 
0.000160373      24.1299     -127.592 
0.000267364      1.58392      135.000 
0.000650629      1.52840     -137.121 
1.36766e-05      13.7232     -119.703 
-0.000353770      9.32129     -129.428 
-0.000513869      16.4329     -127.484 
0.000213480      30.2083     -127.143 
1.36336e-05      28.6290     -129.785 
-0.000370253      14.7671     -136.097 
3.96883e-05      11.4299     -144.975 
-0.000252848      1.57582     -156.038 
-3.81581e-05      24.4330     -124.731 
-0.000112568      10.3596     -120.129 
-0.000224688      11.6792     -119.550 
3.95866e-05      6.05733     -123.690 
0.000238827      13.7630     -119.993 
-3.90586e-05      10.9252     -113.749 
7.23698e-05      23.1135     -131.914 
0.000148993      1.47513      167.471 
0.000236458      7.84897     -119.962 
1.32317e-05      14.3510     -120.854 
0.000373642      1.72325     -21.8014 
-0.000190795      18.0163     -126.514 
-1.31569e-05      3.82079     -160.427 
-1.31544e-05      16.7483     -117.911 
-0.000350123      8.80909     -129.472 
-0.000172638      1.60997     -153.435 
3.82037e-05      28.6906     -129.683 
1.31071e-05      14.6120     -121.340 
2.53492e-05      2.79084     -117.300 
0.000150833      3.45485     -137.816 
1.29690e-05      28.8139     -129.480 
0.000118538      15.5688     -132.709 
0.000314108      8.62703     -108.939 
0.000207660      7.93252     -138.270 
0.000205930      5.99093     -124.114 
0.000224055      2.89883     -117.979 
0.000196137      16.5196     -134.215 
-1.26947e-05      9.34495     -122.057 
1.26821e-05      14.5021     -121.235 
0.000236336      15.6146     -134.170 
-0.000372071      10.9667     -113.199 
9.49001e-05      17.7385     -131.526 
9.58514e-05      25.7298     -127.547 
0.000221931      14.2824     -121.019 
-1.25195e-05      7.69706     -142.177 
-0.000381526      3.89625     -160.821 
0.000378922      5.92486     -124.548 
-0.000118583      20.3761     -125.250 
7.93438e-05      11.2530     -144.841 
-0.000114102      8.62406     -142.918 
-8.84198e-05      24.4988     -124.624 
0.000200108      18.3354     -130.222 
-1.22668e-05      16.2996     -121.350 
-0.000207280      17.7953     -123.261 
0.000239217      10.3695     -144.103 
2.38182e-05      28.9265     -129.501 
-0.000281751      31.4257     -129.525 
-0.000125309      24.5402     -123.431 
-0.000154805      16.2581     -121.109 
-0.000123642      7.28396     -141.242 
1.20460e-05      14.3922     -121.128 
3.54689e-05      28.7522     -129.581 
-2.20503e-05      22.3029     -124.773 
-0.000244541      20.2594     -133.400 
0.000123234      19.3531     -128.623 
-1.19581e-05      18.9358     -121.877 
2.32429e-05      11.4601     -108.308 
0.000327937      23.3711     -133.474 
-0.000146959      22.5188     -118.659 
-1.18603e-05      22.5913     -124.759 
0.000230255      4.48642     -140.064 
2.26418e-05      17.4411     -132.397 
-1.16775e-05      9.30273     -121.640 
-4.47865e-05      10.9950     -119.176 
-3.41811e-05      14.7428     -128.611 
0.000297219      1.55332      168.111 
0.000193692      30.2240     -126.931 
0.000237271      3.63890     -146.659 
-0.000362861      8.84281     -131.332 
-9.11524e-05      16.1072     -120.769 
-0.000122327      22.4143     -124.824 
-2.24137e-05      18.8937     -121.671 
-0.000306165      10.4289     -119.908 
0.000157463      28.8032     -129.704 
0.000218510      25.7933     -127.439 
-5.19016e-05      9.15117     -121.050 
-8.38896e-05      17.9521     -126.666 
-2.19039e-05      9.46708     -149.534 
2.19318e-05      14.9420     -121.648 
-0.000124112      26.5601     -127.042 
-0.000324801      4.11203     -127.093 
-1.10642e-05      30.5148     -124.857 
-5.81050e-05      32.2566     -126.529 
-0.000310357      22.5256     -124.875 
-0.000148173      14.8552     -128.660 
7.81927e-05      28.8648     -129.602 
-2.11127e-05      16.7110     -117.669 
-2.11730e-05      7.99240     -131.348 
-0.000689301      1.13137     -8.13010 
9.15111e-05      27.1927     -131.900 
-7.92578e-05      28.2722     -127.064 
-7.21886e-05      31.4759     -127.773 
0.000110564      23.1670     -132.061 
0.000142397      9.24164     -110.788 
1.06069e-05      20.3914     -119.884 
-0.000125460      1.31939     -165.964 
-3.07871e-05      31.4868     -124.336 
0.000128850      15.5101     -132.910 
0.000236828      12.3366     -136.577 
-3.08882e-05      14.7929     -128.853 
-0.000331897      20.6569     -133.274 
-2.95710e-05      13.7723     -131.468 
-9.38667e-05      16.1671     -128.571 
5.90086e-05      20.3516     -119.689 
-0.000321885      29.9124     -122.883 
0.000102091      10.4344     -144.360 
-5.05345e-05      14.5056     -128.956 
0.000307024      16.5755     -134.413 
0.000135480      24.0812     -127.441 
-0.000207588      8.56037     -142.595 
3.05090e-05      22.8035     -127.875 
-0.000256269      7.22174     -140.845 
0.000159343      19.2906     -128.771 
-0.000193474      13.0285     -132.013 
1.98042e-05      20.3818     -119.382 
-0.000197445      20.2014     -133.556 
1.01990e-05      10.9813     -107.379 
8.82449e-05      28.9323     -125.888 
-2.01056e-05      24.6070     -123.328 
5.84657e-05      18.3871     -130.412 
-0.000197117      16.2169     -120.867 
-1.87999e-05      6.73380     -133.556 
0.000116839      11.0055     -107.776 
5.72435e-05      14.9842     -121.908 
0.000593939      21.2567     -117.819 
0.000219074      20.6916     -127.933 
-0.000216295      6.51742     -138.483 
0.000324443      2.03961      154.440 
9.98840e-06      11.4855     -108.687 
-9.03691e-05      32.2480     -128.149 
-0.000100955      22.3721     -118.398 
0.000257189      15.6704     -134.379 
9.06593e-05      1.28996      97.1250 
-5.85089e-05      31.3641     -129.618 
0.000174024      30.1617     -126.262 
-1.76883e-05      31.3306     -124.177 
0.000100981      12.0930     -124.216 
0.000101938      14.3238     -121.293 
-8.11244e-05      26.6722     -127.076 
-0.000220277      31.4270     -127.658 
-2.77636e-05      17.5536     -119.486 
-1.83557e-05      7.80933     -142.074 
-0.000158929      1.38101      10.0080 
-5.96039e-05      30.8199     -124.103 
0.000255457      2.07692      15.6422 
-4.58155e-05      28.0000     -126.870 
-7.04860e-05      31.5320     -124.456 
0.000123472      3.70600     -147.339 
9.91464e-05      11.5613     -124.570 
0.000168357      29.2363     -129.003 
0.000236925      4.59913     -139.939 
-0.000308269      18.0641     -126.718 
-0.000104827      9.11017     -120.619 
-1.81873e-05      29.1578     -122.905 
9.43302e-06      9.94609     -140.548 
0.000147410      18.4481     -130.251 
2.76373e-05      28.8854     -125.759 
0.000105385      3.46225     -139.686 
7.16763e-05      28.9504     -125.667 
0.000137943      1.52840     -132.879 
0.000102558      14.4337     -121.399 
-4.28851e-05      31.1520     -123.690 
0.000291893      15.4557     -132.693 
-5.42692e-05      10.3197     -119.745 
0.000161699      4.32296     -141.009 
-0.000288421      12.4690     -141.512 
-0.000190013      22.4806     -118.480 
-4.27501e-05      32.1987     -128.037 
1.76287e-05      28.8250     -124.484 
8.95660e-06      1.57175      165.256 
6.33938e-05      7.71077     -149.444 
4.37161e-05      1.63169      168.690 
-0.000139121      6.46467     -139.014 
-4.24764e-05      11.7188     -119.890 
-8.78089e-06      13.8324     -131.248 
-3.44894e-05      3.97190     -161.200 
-8.77462e-06      1.53883     -152.103 
0.000110008      26.3424     -131.923 
8.24941e-05      28.8502     -124.836 
-0.000157236      27.6022     -123.414 
-4.14110e-05      17.4402     -126.607 
0.000163222      12.2755     -134.736 
6.50060e-05      20.3427     -119.186 
0.000120821      25.7447     -127.297 
0.000146138      22.7545     -127.716 
3.33437e-05      28.9038     -125.538 
-0.000136000     0.400000      143.130 
-0.000304624      4.06428     -126.193 
-3.27310e-05      17.5931     -119.713 
0.000116882      15.0266     -122.167 
2.33272e-05      27.7881     -133.250 
-8.54450e-06     0.339411      135.000 
0.000311698      2.17624     -17.1027 
0.000249166      2.63879     -165.964 
-3.33450e-05      14.3931     -128.908 
0.000155658      1.64924      165.964 
-8.51822e-06      23.2409     -119.035 
9.62075e-05      12.1381     -124.528 
-6.29961e-05      15.9682     -118.748 
0.000150727      19.3408     -128.956 
1.66300e-05      29.6864     -129.094 
-7.66111e-05      29.6240     -122.875 
4.13295e-05      30.1791     -126.050 
0.000131883      11.6069     -124.895 
-0.000123591      26.7205     -127.213 
8.37994e-06      11.3185     -145.074 
-0.000169515      3.74037     -131.532 
0.000146034      28.8704     -124.615 
-0.000138342      9.00062     -120.440 
-4.70389e-05      16.1047     -128.749 
3.93945e-05      13.8032     -120.280 
-1.63388e-05      16.5196     -121.535 
-9.74094e-05      23.1254     -118.516 
8.47654e-05      2.93721     -119.358 
-1.56965e-05      32.2090     -126.415 
-6.98473e-05      10.9354     -112.813 
0.000123723      7.88923     -120.466 
0.000165911      8.09938     -110.225 
-6.10976e-05      28.3409     -122.434 
2.42551e-05      29.5210     -126.404 
-9.19271e-05      14.9054     -128.900 
0.000152102      30.1321     -125.927 
-0.000160049     0.452548      135.000 
-6.22534e-05      32.0972     -126.384 
-5.38149e-05      11.6097     -119.745 
6.85118e-05      28.8544     -129.826 
0.000128640      27.1393     -131.774 
3.10905e-05      2.56125     -165.530 
4.59129e-05      1.28250      93.5763 
-0.000113536      14.3430     -128.660 
-8.49695e-05      1.30231      10.6197 
-8.02589e-06      19.9752     -133.540 
4.52944e-05      9.37401     -111.529 
-0.000150952      16.4817     -127.704 
-3.09994e-05      13.9453     -131.279 
7.99876e-06      28.8574     -125.408 
-3.79977e-05      31.5773     -124.576 
0.000120846      14.4756     -121.670 
0.000120800      2.11811     -10.8855 
-0.000150727      27.6690     -123.322 
9.83947e-05      9.17039     -137.121 
6.05321e-05      24.0326     -127.290 
5.37860e-05      29.4736     -126.279 
-7.89821e-06      20.0304     -133.705 
8.25185e-05      18.4999     -130.440 
1.55538e-05      28.7922     -125.501 
-0.000171892      28.4743     -132.837 
9.00409e-05      2.02386      18.4349 
-6.75455e-05      16.3680     -121.204 
6.73675e-05      1.47513     -130.601 
-8.22104e-05      19.9726     -133.864 
6.68998e-05      5.85915     -124.992 
7.72593e-06      17.7985     -131.356 
-2.96418e-05      24.5444     -124.778 
6.69020e-05      20.6425     -127.758 
9.60682e-05      12.3325     -134.474 
-1.52032e-05      28.0481     -127.001 
-2.98106e-05      17.6038     -120.294 
2.97545e-05      29.0210     -134.442 
1.49252e-05      2.04900     -128.660 
5.91333e-05      23.4292     -133.340 
-7.58447e-06      9.06969     -120.184 
-2.93214e-05      21.5105     -125.463 
-7.56781e-06      17.3283     -126.552 
2.95406e-05      28.7458     -125.371 
-3.67370e-05      21.5819     -129.887 
7.53377e-06      1.64924     -22.8337 
5.86491e-05      21.1860     -117.920 
-5.86588e-05      25.5200     -133.603 
5.13237e-05      23.3464     -122.546 
3.65717e-05      24.4504     -133.144 
2.19187e-05      12.2786     -136.320 
1.48448e-05      25.6811     -127.405 
6.54655e-05      19.2787     -129.105 
3.65115e-05      12.0269     -124.430 
1.45997e-05      2.26416     -122.005 
2.90605e-05      29.4263     -126.153 
-4.35512e-05      1.22376      11.3099 
-7.36094e-06      22.3342     -118.217 
-5.06205e-05      18.1120     -126.921 
7.34148e-06      23.1731     -131.781 
2.89742e-05      25.6326     -127.263 
-2.16614e-05      14.1111     -131.553 
-7.27946e-06      17.3760     -126.764 
-1.44037e-05      32.0498     -126.269 
-7.23361e-06      16.0768     -118.861 
-7.21490e-06      1.24193     -165.069 
-7.19193e-06      31.3756     -124.298 
-7.17080e-06      6.72428     -145.176 
