! Center RA: 16 42 58.80997,  Dec: +39 48 36.99402 (2000.0)
! Established model.
! Flux (Jy) Radius (mas)  Theta (deg)  Major FWHM (mas)  Axial ratio   Phi (deg) T \
! Freq (Hz)     SpecIndex
   2.50684      0.00000      0.00000 
  0.231303    0.0600000      90.0000 
0.00787010     0.120000     -90.0000 
 0.0222223     0.180000     -90.0000 
 0.0898397     0.120000      90.0000 
 0.0513248     0.247386     -104.036 
 0.0718327     0.240000     -90.0000 
 0.0984621     0.305941     -101.310 
 0.0143940     0.189737      108.435 
 0.0536361      2.46000     -102.680 
  0.164156     0.180000      90.0000 
 0.0340594      2.40150     -102.995 
 0.0157097     0.646220     -111.801 
 0.0109648     0.724983     -114.444 
 0.0370053      1.56461     -94.3987 
 0.0778003     0.702282     -109.983 
 0.0158888      2.41570     -104.381 
0.00864220      2.60500     -97.9435 
0.00829572      2.35763     -104.744 
 0.0153471      2.65699     -96.4831 
 0.0169144      2.28473     -103.671 
0.00737948      1.50479     -94.5739 
 0.0137792      1.57035     -96.5819 
0.00885232      2.29965     -105.124 
 0.0152682      2.66443     -97.7652 
0.00218828      1.44499     -94.7636 
0.00996436      1.22376     -101.310 
0.00613926      2.22648     -104.036 
 0.0102920      1.63768     -98.4270 
0.00582423      2.71662     -96.3402 
0.00548655      2.54700     -105.018 
0.00734171      2.21269     -102.529 
 0.0244439      1.17881     -104.744 
 0.0178815      2.72389     -97.5946 
 0.0142028     0.216333     -56.3099 
0.00339655      1.38521     -94.9697 
 0.0234489      1.70658     -100.125 
0.00171250      2.14159     -101.310 
0.00338763     0.323110     -111.801 
 0.0119705      2.50567     -106.699 
 0.0134586      2.13063     -99.7276 
 0.0303338     0.402492     -116.565 
0.00156089      1.69706     -98.1301 
0.00970724      1.38130     -92.4896 
0.00393136      2.31603     -106.557 
 0.0102429      2.78338     -97.4314 
 0.0105953      1.44125     -92.3859 
0.00491021      2.12132     -98.1301 
 0.0269644     0.758947     -108.435 
 0.0113086      2.56320     -106.314 
0.00863956      2.52071     -91.3639 
 0.0100960      1.12089     -105.524 
0.00325260      2.25858     -106.991 
0.00433703      2.79177     -98.6525 
0.00618567      2.11367     -96.5198 
 0.0157814     0.254558     -45.0000 
0.00202841      1.76567     -99.7824 
 0.0163618      2.85110     -98.4711 
0.00526331      2.27684     -108.435 
 0.0161177     0.247386      104.036 
0.00446275      2.05407     -96.7098 
 0.0121062      1.16499     -101.889 
 0.0126967      2.46073     -91.3972 
 0.0102657      2.58070     -107.592 
0.00352151      1.77685     -101.689 
 0.0110665      2.04793     -95.0425 
0.00574950      2.22000     -108.925 
0.00654245      2.62084     -105.945 
0.000667051      1.50120     -92.2906 
 0.0136992     0.268328      116.565 
0.00583414     0.349857     -120.964 
0.00166881     0.780000     -112.620 
0.00363935      2.52000     -90.0000 
0.00307794      1.44000     -90.0000 
0.00275283     0.189737      71.5651 
0.00209187      2.90241     -97.1250 
0.00189390      2.86056     -99.6599 
0.00269302      1.78997     -103.570 
0.00473778     0.268328     -26.5651 
0.00785129      2.24018     -110.376 
0.00251101      4.01462     -80.5377 
0.00426298      1.50000     -90.0000 
0.00229511     0.816088     -107.103 
 0.0104730      6.34810     -82.9422 
0.00475010      4.17852     -74.1676 
0.00654053      3.00240     -92.2906 
0.00527378      2.63795     -107.199 
0.000470527      1.71814     -102.095 
0.00725377      6.89139     -82.9987 
0.00323576      2.46000     -90.0000 
0.00264880      4.00520     -81.3844 
0.00134369      2.04353     -93.3665 
0.00390188      1.80499     -105.422 
0.00114993      5.88031     -81.7872 
0.00406271      1.98363     -93.4682 
0.00154312      5.88918     -81.2095 
0.00486486     0.384187     -128.660 
0.00404268      2.87124     -100.840 
0.00251884      4.25281     -73.6105 
0.00125012     0.216333      33.6901 
0.00101069      4.11558     -82.4606 
0.00336647      6.07217     -78.0239 
0.000704229      3.95545     -80.3948 
0.000714534      4.10814     -83.2902 
0.00134477      4.46789     -75.2173 
0.00299185      5.02068     -75.4655 
0.000675335      3.89631     -80.2476 
0.000991353      6.15665     -77.0472 
0.00415294     0.300000     -36.8699 
0.00185024      4.16773     -83.3865 
0.00361942      4.19528     -73.3792 
0.00307712      5.81257     -82.2881 
0.000861558      3.82732     -80.9807 
0.00146059      6.38880     -75.3112 
0.00159066     0.216333      56.3099 
0.00351152      4.52593     -75.4111 
0.00317103      6.46220     -74.9315 
0.00301138      1.56115     -87.7974 
0.00259726      5.00596     -76.1303 
0.00296014      3.69962     -81.6071 
0.00287059      6.88433     -83.4944 
0.00192840      1.82187     -107.241 
0.00186340      3.06059     -91.1233 
0.00127344      4.22734     -83.4802 
0.00211708      5.69526     -73.4742 
0.00317757     0.384187      128.660 
0.00144274      6.24461     -87.7974 
0.000495409      1.73170     -104.036 
0.00182568      6.94395     -77.5249 
0.00226149      6.40428     -74.7920 
0.00312067      7.63204     -73.5596 
0.00129435      7.66428     -80.5377 
0.00155502      6.18262     -88.3317 
0.00204777      7.41504     -84.4278 
0.000243215      6.07157     -71.5651 
0.00152714      6.60109     -88.9584 
0.00159480      2.93019     -100.620 
0.000885995      6.14758     -71.2114 
0.00110042      5.94030     -89.4213 
0.000231665      1.50120     -87.7094 
0.00125647      2.26177     -111.801 
0.000565177      4.75857     -84.9364 
0.00140534      2.88312     -102.011 
0.00168986      7.34969     -84.8479 
0.000858297      8.37811     -78.8510 
0.00140966      4.28696     -83.5713 
0.00169581      7.72347     -80.6109 
0.00200616      5.88031     -89.4154 
0.00334650      4.81834     -84.9994 
0.000957045      6.35575     -82.4054 
0.00154610      1.20599     -95.7106 
0.00309904      8.43699     -78.9298 
0.000923530      3.88659     -81.1193 
0.00114178      3.06000     -90.0000 
0.000213361      4.35362     -82.8750 
0.00153061      7.83798     -70.3167 
0.000600750      6.24260     -88.3477 
0.000792685      1.26000     -90.0000 
0.000578077      1.56461     -85.6013 
0.00117169      7.40945     -84.8896 
0.000779793      8.01983     -74.8201 
0.00144055      5.74529     -82.8008 
0.00137365      6.22383     -70.8664 
0.00109605     0.800500     -102.995 
0.000210934      5.79986     -65.5560 
0.000380063      6.95715     -77.0424 
0.000663406      3.64027     -81.4692 
0.000382194      5.88000     -90.0000 
0.000419500      1.19549     -107.526 
0.000848890      6.60027     -89.4791 
0.000188084     0.300000     -53.1301 
0.000187642      5.60446     -74.4759 
0.00126556      5.85454     -65.7990 
0.00106744      8.98338     -74.1072 
0.000594466      6.44686     -75.4464 
0.000785979      7.96193     -74.7070 
0.00115377      8.96714     -74.4759 
0.000389490      7.00254     -77.6309 
0.00142588      1.56115     -92.2026 
0.000727048      4.34037     -84.4470 
0.000378660      7.65676     -74.5480 
0.00231633      5.62082     -73.8866 
0.000375357      6.98994     -78.1113 
0.00190738      5.05035     -76.9544 
0.000715835      7.71391     -81.0505 
0.000676472      4.27518     -85.1696 
0.000702510      1.62111     -92.1211 
0.000720866      8.03575     -74.4072 
0.000577680      4.28065     -84.3693 
0.000853675      7.04866     -78.2118 
0.000932920      3.94588     -81.2538 
0.00102131      5.94121     -88.8427 
0.000348910      6.83947     -82.4386 
0.000681736      8.50435     -69.7751 
0.00189527      7.61527     -73.9926 
0.00127830      2.91973     -99.4623 
0.00238625     0.742159     -104.036 
0.000341355      8.97877     -75.6852 
0.000647525      6.24260     -72.0875 
0.00107614      9.00000     -73.7398 
0.000329398      4.21540     -85.1009 
0.000329120      7.65465     -80.9807 
0.00186699      8.09355     -74.5214 
0.000323780      8.52465     -67.2250 
0.000632650      9.00820     -76.5191 
0.00247924      6.89896     -82.5041 
0.000320485      2.66308     -104.349 
0.00185474      7.85840     -69.9048 
0.000585444      5.06423     -76.2930 
0.000319347      8.95629     -70.8368 
0.000316683      7.42110     -83.9667 
0.000605313      9.52111     -77.6278 
0.000314621      3.42210     -92.0096 
0.000559445      8.56068     -69.9140 
0.000606688      3.63186     -82.4054 
0.000309112      6.89870     -76.9307 
0.00103524      4.54141     -74.6785 
0.000607215      9.82279     -76.2184 
0.000891104      6.48111     -88.9391 
0.00111917      8.49291     -66.6951 
0.000535984      9.48873     -72.7108 
0.00239293     0.268328     -63.4349 
0.000301211      9.01299     -70.9620 
0.000577959      3.00240     -87.7094 
0.000850927      2.16333     -109.440 
0.000571293      1.56000     -90.0000 
0.000293885      8.49588     -79.0075 
0.00108485      9.50673     -72.3655 
0.000999096      3.48465     -92.9609 
0.000520683      5.67849     -83.3255 
0.000561478      1.20150     -92.8624 
0.000530583      4.21070     -85.9144 
0.000552163      6.85420     -76.3287 
0.000560345      8.97617     -70.4750 
0.00107999      9.89545     -75.9638 
0.000284728      8.61371     -79.1597 
0.000534639      6.26131     -71.5651 
0.00105116      5.28136     -88.6980 
0.000281992      4.48357     -74.4759 
0.000773732      8.54805     -66.8542 
0.000280354      8.15139     -74.6339 
0.000929193      9.56393     -72.4744 
0.000277228      9.05284     -76.9769 
0.000274032      5.29532     -70.1278 
0.000757951      4.27013     -72.8381 
0.000786251      6.54028     -89.4744 
0.000526185      8.36672     -79.2541 
0.000269332      4.20685     -86.7295 
0.000268245      9.39110     -77.8285 
0.000525048      5.82000     -90.0000 
0.000501341      6.20442     -71.3898 
0.000747835      3.00540     -86.5664 
0.00195596      3.57239     -82.2782 
0.000264008      9.45985     -68.8059 
0.000263247      1.62000     -90.0000 
0.000512939      8.66164     -79.6242 
0.000261690      4.55763     -73.9510 
0.000457597      8.35703     -74.1676 
0.000260084      6.30457     -81.7928 
0.000507160      4.75857     -66.9911 
0.000256908      7.17245     -70.9588 
0.000256464      4.14391     -87.5104 
0.000496208      5.31601     -69.5196 
0.000494440      1.20000     -90.0000 
0.000491386      8.91964     -70.3462 
0.000476981      5.71262     -72.8973 
0.000252725      7.57451     -73.4312 
0.000570848      9.53755     -68.6002 
0.000700135      9.57973     -77.7047 
0.00110862      5.76125     -91.1935 
0.000632807      6.14348     -77.5926 
0.000483510      8.32250     -84.2072 
0.000647910     0.300000     -90.0000 
0.000301535      9.21523     -77.5926 
0.000689269      1.62111     -87.8789 
0.00105904      7.19225     -70.5069 
0.000477023      9.96831     -75.7128 
0.00103294      3.54457     -92.9108 
0.000239441      6.50495     -75.5792 
0.000239042      4.78234     -66.3295 
0.00141583      8.29672     -79.5840 
0.00121898     0.379473     -108.435 
0.00142852      6.31341     -81.2538 
0.000231724     0.789177     -98.7462 
0.00194045      4.72745     -66.0375 
0.000731046      6.79591     -76.2091 
0.000589666      9.15664     -77.5119 
0.000228191      5.67246     -66.9606 
0.000438369      8.38220     -84.2486 
0.000439299      3.90046     -90.8814 
0.00149729      5.28034     -89.3489 
0.000754448      9.61536     -68.3978 
0.00101002      2.18403     -110.925 
0.000223484      10.0265     -75.7974 
0.000630667      3.00958     -85.4261 
0.000580230      8.57181     -66.4854 
0.00186604      6.60000     -90.0000 
0.000220038      8.94000     -69.9840 
0.000417789      2.52071     -88.6361 
0.000218539      8.07217     -84.8827 
0.00121262      3.58095     -81.3268 
0.000597011      5.41498     -68.5523 
0.000918504      8.43123     -73.8866 
0.000418584      1.20150     -87.1376 
0.000425533      10.0846     -75.8811 
0.000298509      8.70000     -80.4727 
0.000410578     0.729931     -99.4623 
0.000603302      8.51683     -66.3244 
0.00169700      4.21284     -72.5973 
0.000793377      8.54026     -70.2920 
0.000396897      5.75124     -66.6444 
0.000389128      1.18186     -113.962 
0.000552355      8.00725     -85.2720 
0.000312440      6.13087     -78.1402 
0.000205481      1.62444     -85.7636 
0.000402291      5.82031     -90.5907 
0.000547764      9.56713     -78.0558 
0.000721854      7.34455     -85.3141 
0.00100568      4.87332     -85.7636 
0.00138905      10.1428     -75.9638 
0.000391105      8.99640     -70.1148 
0.000200470      4.20171     -88.3634 
0.000681616      8.74951     -80.9252 
0.000198419      7.68586     -87.7630 
0.000311789      9.69330     -68.1986 
0.000707674      6.73766     -76.0875 
0.00100080      8.44190     -84.2894 
0.000193228      4.14043     -89.1697 
0.000192818      5.78775     -72.5042 
0.000720135      7.68375     -88.2101 
0.000976335     0.305941     -78.6901 
0.000548386      1.68428     -85.9144 
0.000189094      1.01823     -135.000 
0.000700168      9.74903     -68.3296 
0.000891517      9.20252     -77.9574 
0.000187134      1.14630     -83.9910 
0.000570390      4.61532     -74.1569 
0.000363250      2.96196     -83.0189 
0.000185643      9.87360     -73.7676 
0.000185423      5.68577     -82.7250 
0.000358576      9.84439     -80.8821 
0.000675171     0.364966     -99.4623 
0.000337215      3.84187     -91.7899 
0.000339682      8.92569     -74.0017 
0.000179046      1.20599     -84.2894 
0.000315505      7.87921     -69.4950 
0.000178824      9.62584     -78.1297 
0.000796915      5.76281     -91.7899 
0.000321271      10.3800     -72.5077 
0.000803577      5.77529     -66.0979 
0.000456014      9.46118     -81.6130 
0.000916390      1.06151     -137.291 
0.000342241      4.20043     -89.1815 
0.000175248      10.5794     -75.8849 
0.000336836      6.30029     -70.5297 
0.000322503      6.18116     -88.8876 
0.00273155     0.240000      90.0000 
0.000323485      9.01698     -69.7563 
0.000595766      9.83305     -73.3342 
0.00110665      7.13571     -70.3462 
0.00161800      10.6376     -75.9638 
0.000330401      1.15412     -81.0274 
0.000641619      2.91046     -81.7029 
0.00136139      2.20617     -112.380 
0.000485332      4.15562     -72.3499 
0.00169965      9.40183     -81.5596 
0.000655176      10.4372     -72.6067 
0.000167611      8.65083     -66.2796 
0.000167637      5.42826     -76.5782 
0.000318904     0.722496     -94.7636 
0.000165867      10.2011     -76.0455 
0.000907035      1.68962     -83.8845 
0.000321055      9.90364     -80.9371 
0.000612153      3.83437     -69.8637 
0.000162073      6.12118     -88.8767 
0.000989511      3.48827     -93.9452 
0.000609701      7.62213     -88.6468 
0.000159499      8.54110     -65.9558 
0.000518467      5.09576     -77.7639 
0.000300929      4.20000     -90.0000 
0.000289222      6.67943     -75.9638 
0.000559272      5.43721     -67.9638 
0.000882948      2.94184     -101.768 
0.000155296      8.70579     -66.4385 
0.000411286      7.67437     -80.0958 
0.000298155      1.62997     -83.6598 
0.000152992      6.24375     -70.3462 
0.000152409      9.80481     -68.4590 
0.000286773      8.00252     -85.7001 
0.000151030      5.41465     -77.1957 
0.000150810      4.26000     -90.0000 
0.000163587      1.21342     -81.4692 
0.000424951      9.89436     -81.2803 
0.000148317      1.20748     -116.565 
0.000239407      4.68961     -73.6518 
0.000148181      8.48634     -65.7907 
0.000317898      6.24115     -88.8983 
0.000147122      5.22034     -89.3415 
0.000276559      1.98091     -91.7357 
0.000521745      7.02103     -89.0207 
0.000517679      4.75214     -65.3764 
0.000274669      9.86065     -68.5870 
0.00101691      2.91973     -80.5377 
0.000144539      8.45659     -65.2533 
0.000144270      5.86314     -72.1213 
0.000712516      8.94242     -73.6322 
0.000382605      7.10740     -78.3106 
0.000142338      10.6232     -76.2777 
0.000622801      8.78483     -66.2362 
0.000530979      1.16499     -78.1113 
0.000392075      5.28000     -90.0000 
0.000139960      7.08102     -89.0290 
0.000272712      6.32054     -70.0169 
0.000508935      8.23772     -79.5085 
0.000139114      9.89491     -69.0373 
0.000524824      7.56095     -89.0906 
0.00146536      10.6815     -76.3540 
0.000176466      5.69368     -82.1261 
0.000262919      4.63206     -73.4429 
0.000490289      10.3982     -72.1924 
0.000136330      2.52642     -85.9144 
0.000388291      4.26042     -90.8069 
0.000135091      3.77809     -69.5505 
0.000134935      8.37339     -64.5367 
0.000577542      5.70505     -92.4110 
0.000131861      8.34539     -63.9876 
0.000601522      8.43614     -84.6949 
0.000722029      5.47317     -77.3349 
0.000370040      9.88544     -81.6240 
0.000129654      7.21249     -70.0576 
0.000129587      4.69766     -65.0715 
0.000491329      1.06827     -141.843 
0.000214720      4.81348     -85.7108 
0.000127820      8.31817     -63.4349 
0.000127260      3.85544     -69.0265 
0.000549267     0.720000     -90.0000 
0.000125861      7.81130     -65.0097 
0.000125337      5.22000     -90.0000 
0.000349208      10.4553     -72.2929 
0.000580782      3.90185     -91.7624 
0.000884765      8.22700     -79.9194 
0.000550493      9.95096     -69.1609 
0.000123211      6.26418     -69.8293 
0.000350756      8.37188     -63.6186 
0.000121828      3.79947     -68.7026 
0.000553128      8.83977     -66.3929 
0.000121343      6.66027     -90.5162 
0.000980635      1.26143     -115.346 
0.000121000      7.99825     -86.1287 
0.000120381      9.81747     -81.9194 
0.000227423      8.15757     -62.8695 
0.000454125      7.56024     -89.5453 
0.000507661      8.88486     -73.5231 
0.000443088      1.17881     -75.2564 
0.000415301      7.64924     -73.1286 
0.000117216      3.82167     -67.8645 
0.000116420      9.02018     -82.3550 
0.000452358      1.92094     -88.2101 
0.000520111      7.27486     -65.1258 
0.00195758      1.11606     -143.746 
0.000960625      6.34129     -69.5074 
0.000327383      5.28034     -90.6511 
0.000216924      8.50562     -73.6105 
0.000424782      4.32167     -91.5911 
0.000747088      4.70685     -72.9510 
0.000113795      6.54000     -90.0000 
0.000189964      1.63768     -81.5730 
0.000113587      8.07686     -63.0543 
0.000216039      6.00030     -89.4271 
0.000112266      7.90476     -83.8999 
0.000111844      2.53140     -84.5597 
0.000403072      7.02026     -89.5103 
0.000111212      9.77558     -73.2334 
0.000110977      3.86849     -66.2180 
0.000217951      9.87688     -81.9683 
0.000641930      3.42841     -94.0142 
0.000110134      5.35918     -68.3177 
0.000372213      5.76156     -81.6168 
0.000186016      6.48028     -89.4695 
0.000107148      1.74929     -84.0939 
0.000107131      4.58912     -64.4400 
0.000308999      3.91842     -64.6121 
0.000105280      2.74233     -79.9194 
0.000205223      8.10422     -62.6761 
0.000204397      7.99104     -86.9872 
0.000294753      10.3791     -79.3397 
0.000285126      1.69706     -81.8699 
0.000104506      10.5549     -69.7108 
0.000569653      7.50000     -90.0000 
0.000718759      2.22971     -113.806 
0.000103233      8.98519     -84.2513 
0.000201322      8.39871     -63.2519 
0.000289523      8.43080     -85.1009 
0.000888104      7.17847     -77.9387 
0.000297931      1.98000     -90.0000 
0.000101876      6.60027     -90.5209 
0.000380811      9.86868     -82.3133 
0.00105074      2.97893     -80.7274 
0.000100895      9.55489     -78.4078 
0.000100346      9.21444     -68.6143 
0.000100378      4.80675     -65.6744 
0.000488493      11.0597     -76.1899 
0.000194464      5.76500     -92.3859 
9.99957e-05     0.780000     -90.0000 
9.96317e-05      8.69027     -80.8628 
9.91363e-05      3.51295     -82.1467 
0.000194577      5.22138     -91.3169 
0.000282401      1.22376     -78.6901 
0.000457824      10.5758     -69.4059 
0.000550381      5.38164     -67.7241 
0.000413218      2.68328     -79.6952 
0.000222168     0.323110     -68.1986 
0.000276413      8.97938     -84.6323 
9.77198e-05      6.37018     -93.2397 
0.000190978      4.53506     -64.1130 
9.61467e-05      3.94451     -63.8247 
9.60630e-05      7.75696     -64.8225 
0.000172434      6.06000     -78.5788 
0.000185151      8.45234     -63.4349 
0.000312359      5.08338     -78.4248 
0.000179055      1.64754     -79.5085 
0.000347947      3.91796     -62.6501 
9.33119e-05      8.05096     -87.0097 
0.000697343      16.7211     -64.7223 
0.000913006      6.31398     -93.8141 
0.000422094      8.05096     -62.4801 
9.20308e-05      8.82734     -73.4127 
9.16918e-05      3.71903     -72.1497 
9.13592e-05      5.22310     -91.9749 
9.07984e-05      4.32375     -92.3859 
9.04715e-05      5.99580     -71.9277 
0.000158849      9.15860     -68.4774 
9.00042e-05      3.76617     -59.3493 
0.000312549      9.97246     -68.8387 
0.000479588      7.22047     -64.9256 
0.000172056      8.04806     -87.4362 
0.000167620      5.10564     -92.6943 
0.00129478      1.67141     -68.9625 
0.000239425      10.1576     -75.6354 
8.73712e-05      4.86148     -65.9657 
8.68365e-05      8.42589     -62.8876 
8.67700e-05      3.68402     -59.6764 
0.000167184      6.93746     -84.0429 
8.63608e-05      5.90931     -66.0375 
0.000169092      1.19549     -72.4744 
0.000314870      4.38657     -93.1364 
0.000315553      8.42589     -85.5074 
0.000309695      9.86083     -82.6588 
0.000404407      10.3687     -66.1048 
8.45768e-05      7.15612     -69.8938 
8.45249e-05      2.95466     -102.907 
0.000762761      7.50024     -90.4584 
0.000234091      5.16558     -92.6630 
0.000486544      5.93394     -65.5081 
0.000636714      3.71467     -58.8775 
0.000165170     0.247386      75.9638 
0.000161282      7.64641     -71.7072 
0.000293379      10.3682     -79.6655 
0.000235933      8.47934     -63.0723 
0.000997107      11.1324     -75.9638 
0.000228965      4.56158     -63.4349 
8.23265e-05      6.72107     -91.0230 
0.000666848      16.3616     -73.1599 
0.000534229      8.97396     -85.0137 
0.000367828      11.1313     -68.8295 
0.000298556      5.70789     -93.0128 
8.14077e-05      7.78267     -64.4227 
8.12977e-05      9.61368     -78.4797 
8.12049e-05      7.44024     -90.4621 
9.69466e-05      18.2956     -67.6403 
0.000155670      4.88623     -65.3231 
7.99285e-05      16.6412     -64.8209 
0.00122514      18.7654     -65.2377 
0.000230302      8.10800     -87.4552 
7.95996e-05      10.4768     -73.0179 
0.000156820      15.8101     -73.0092 
0.000246863      3.55218     -74.3205 
0.000314780      10.5971     -69.1022 
0.000229222      17.1522     -64.9589 
0.000409732      9.71815     -73.1313 
0.000216686      11.5183     -72.4145 
0.000930861      10.8673     -63.4349 
0.00114311      18.2728     -67.8143 
0.000480277      3.94588     -61.8763 
0.000689378      16.6668     -64.6342 
7.67739e-05      6.72241     -91.5343 
0.000135958      9.23649     -68.2677 
0.000329533      6.32851     -68.2995 
0.000380560     0.300000      126.870 
0.00155176      15.7927     -73.2174 
7.50517e-05      7.47476     -84.4725 
0.000743290      5.32109     -60.2551 
0.000224815      4.76424     -73.1625 
0.00103696      17.1777     -64.7776 
7.42855e-05     0.268328      63.4349 
0.000372438      1.21491     -69.7751 
7.37947e-05      9.64937     -79.2490 
7.36892e-05      7.97007     -62.6633 
0.000273268      2.20045     -115.866 
0.000187221      6.93149     -84.5362 
0.000116952      7.08025     -90.4855 
0.000481189      8.50668     -62.7120 
7.14890e-05      1.23693     -75.9638 
0.000520333      11.5003     -72.6995 
0.000330247      7.99780     -62.2815 
7.06954e-05      5.46033     -77.9492 
0.000322850      8.10555     -87.8789 
0.000153642      2.25460     -115.201 
0.000137262      6.42112     -88.9292 
0.000379400      16.2231     -68.7495 
0.000434272      4.13783     -73.1416 
0.000133753      7.07924     -70.1828 
0.000199821      5.10882     -93.3665 
0.000258555      8.42140     -85.9144 
6.90756e-05      6.72428     -92.0454 
6.89545e-05      1.98091     -88.2643 
0.000136355      18.8199     -65.3142 
0.000133117     0.300000      53.1301 
6.78757e-05      3.74219     -102.031 
6.77969e-05      7.16617     -64.7223 
0.00143064     0.339411      135.000 
0.000183490      8.90914     -85.3645 
0.000485265      4.91634     -66.2505 
6.66265e-05      9.55960     -68.2654 
0.000186774      2.62427     -79.4608 
0.000926474      17.7832     -67.5883 
0.000553751      9.85334     -83.0048 
6.58374e-05      9.63836     -77.7807 
0.000243627      7.24610     -64.4959 
0.000786164      3.53644     -75.2564 
6.50594e-05      3.90415     -92.6425 
0.000371204      18.8451     -65.1484 
0.000124456      4.39026     -93.9182 
0.000760926      16.4191     -73.2205 
0.000125119      6.78425     -92.0273 
0.000322611      10.3446     -66.4087 
6.43809e-05      5.71136     -93.6139 
0.000248512      5.75312     -82.2079 
0.000473791      16.2621     -64.1913 
0.000123588      4.58873     -62.7649 
6.38136e-05      9.14385     -77.8790 
9.89996e-05      1.64754     -100.491 
0.000112573      7.44097     -90.9240 
0.000286128      3.80089     -101.842 
0.000122371      11.1531     -68.5420 
0.000979450     0.684105      52.1250 
0.000212195      6.98581     -85.0729 
6.17922e-05      9.88763     -66.3905 
0.000262543      7.70270     -64.6326 
0.000102377      6.36255     -69.0013 
6.04909e-05      5.16871     -93.3274 
0.000176618      19.1930     -65.0372 
0.000116627      8.45340     -62.5256 
0.000170182      7.00254     -70.4783 
0.000396128      5.77529     -94.1704 
0.000375735      6.25412     -93.8506 
0.000278755      2.22729     -117.255 
0.000409726      12.4088     -71.3898 
0.000166281      6.72669     -92.5562 
0.000112305      11.2089     -68.6542 
0.000305871      16.2449     -68.5523 
0.000308095      10.4020     -73.2374 
0.000384643      8.48125     -85.9433 
0.00126146      3.97135     -63.0478 
0.000324832      6.21514     -59.2260 
5.73534e-05      9.91181     -66.0727 
0.000478055      10.4272     -79.7246 
5.70089e-05      5.22861     -93.2892 
0.000626024      8.96895     -85.3955 
0.000111458      8.16551     -87.8945 
0.000574619      3.66344     -58.3925 
0.000616967      18.7906     -65.0715 
0.000442422      8.52021     -70.6719 
5.61527e-05      7.08102     -90.9710 
0.000393143      5.93879     -71.7481 
0.000195908      3.96182     -91.7357 
0.000559444      16.2361     -64.3819 
0.000303684      7.56024     -90.4547 
0.000177109      3.01317     -102.653 
0.000389420      4.45457     -94.6355 
0.000922324      19.2474     -65.1126 
0.000106184      4.61649     -62.1027 
5.49947e-05      7.02282     -70.0169 
0.000100476      8.07886     -62.1027 
0.000152568      4.36147     -82.0928 
0.000243502      9.88162     -65.6136 
0.000138046      10.1726     -75.3080 
0.000474540      2.69466     -78.4399 
0.000193835      5.46297     -91.8882 
0.000104812      2.28079     -116.565 
0.000586147      17.8204     -62.3133 
0.000330795      9.18078     -68.1291 
0.000251780      17.6781     -59.1696 
0.000396643      3.02926     -82.0304 
0.000122943      9.59268     -77.3546 
0.000739576      19.2113     -59.1897 
0.000153039      8.10355     -88.3028 
0.000593825      2.04088     -91.6847 
0.000287744      7.32614     -64.2744 
5.25798e-05      9.54132     -83.5007 
0.000301698      3.75516     -102.926 
9.15980e-05      6.37272     -81.3359 
0.000328707      5.17254     -93.9909 
0.000442764      2.59946     -108.853 
0.000427586      1.23693     -67.1663 
0.000187074      16.4019     -73.4212 
0.000193113      11.3646     -68.3109 
0.000177455      16.1672     -68.6724 
0.000237836      6.78663     -92.5336 
5.04915e-05      8.34712     -62.1455 
0.000237430      15.1729     -73.9301 
0.000365177      16.5614     -75.3093 
0.000457557      6.24605     -58.7531 
0.000230380      17.1245     -59.9314 
9.02204e-05      8.29412     -61.9519 
4.81442e-05      4.78535     -59.8987 
0.000544928      9.76748     -62.9627 
0.000177459      8.16353     -88.3153 
0.000244633      5.02462     -78.2875 
0.000434862      20.9710     -58.8113 
4.68960e-05      9.05762     -73.8461 
0.000394974      6.31826     -94.3570 
0.000292683      11.6854     -76.0351 
4.66063e-05      7.38219     -91.3972 
4.62501e-05      8.53435     -62.3540 
0.000235658      2.25539     -118.610 
4.61654e-05      6.06119     -88.8656 
0.000183909      7.62000     -90.0000 
8.39425e-05      4.81572     -59.2811 
4.50973e-05      17.6991     -59.4360 
0.000170805      9.84622     -83.3514 
0.000124302      6.94602     -70.3129 
8.12302e-05      8.56005     -62.8961 
0.000357677      9.39321     -81.9217 
0.000355925      15.4446     -71.4243 
0.000153132      10.2307     -75.3933 
0.000186802      8.24121     -61.7557 
0.000166703      15.0987     -74.0859 
0.000213792      3.36856     -94.0856 
0.000202067      17.6292     -74.4028 
0.000206174      4.42945     -81.4309 
0.000379789      6.78955     -93.0394 
0.000159491      17.7508     -59.5345 
8.38688e-05      4.73354     -59.5345 
0.000221209      11.4426     -68.1428 
0.000245935      9.16980     -77.1459 
4.27089e-05      9.12513     -67.9887 
0.000745455      17.0945     -60.1055 
0.000742438      6.19484     -58.4652 
0.000207040      16.7460     -68.1223 
0.000795982      12.4849     -71.2168 
0.000151012      7.44218     -91.3859 
0.000111474      17.7204     -59.7017 
0.000184291      16.6926     -64.4481 
0.000440539      18.8298     -68.5037 
0.000225933      18.1166     -62.1619 
4.13501e-05      7.27214     -64.0692 
8.06921e-05      8.58755     -62.5398 
0.000175448      10.3996     -66.5410 
4.04134e-05      8.02588     -61.9023 
0.000330003      17.8135     -76.7595 
0.000650959      12.1031     -62.5457 
0.000177213      4.02045     -90.8551 
0.000115860      8.10200     -88.7270 
0.000457465      21.0224     -58.8960 
7.71318e-05      5.03714     -77.6192 
3.99481e-05      16.5463     -75.5102 
0.000107377      7.35239     -63.8532 
0.000504821      5.83976     -94.7148 
0.000110737      2.28473     -119.932 
3.89867e-05      6.35094     -67.7965 
0.000104302      10.2460     -75.0686 
3.85795e-05      16.5167     -75.9133 
0.000125359      9.85700     -65.9313 
0.000433073      15.0823     -74.3051 
3.84450e-05      9.91290     -83.0470 
3.84311e-05      3.02152     -83.1572 
0.000164124      7.40629     -64.0577 
0.000148478      18.3558     -55.7905 
3.82342e-05      15.7179     -73.3636 
7.48092e-05      6.08490     -77.4712 
0.000133568      9.10281     -68.3388 
3.79165e-05      8.37532     -61.7826 
0.000167874      7.62024     -90.4511 
3.74846e-05      7.72860     -64.2307 
0.000370249      9.90582     -83.3915 
0.000470879      8.54110     -85.9717 
0.000263801      11.7000     -75.7500 
3.71999e-05      16.5022     -76.1153 
3.70557e-05      7.11196     -64.5159 
0.000126879      10.0284     -68.9625 
0.000140444      16.4879     -76.3177 
0.000197135      4.84665     -58.6713 
0.000820932      14.0724     -76.4378 
3.63810e-05      11.5576     -72.7879 
0.000630768      17.7902     -55.7204 
3.60500e-05      9.11526     -73.9510 
0.000176780      15.7009     -73.5734 
0.000372551      15.1662     -67.1883 
0.000237678      7.68000     -90.0000 
0.000100651      5.37327     -60.5725 
0.000103368      8.16198     -88.7363 
0.000194898      17.7032     -74.2680 
6.84062e-05      16.1891     -68.4746 
3.54801e-05      9.53471     -83.8589 
0.000751505      8.82020     -90.3898 
6.77361e-05     0.360000     -90.0000 
0.000620076      18.3896     -55.6359 
0.000743449      19.1807     -59.3436 
3.47558e-05      5.87939     -65.2657 
0.000385083      3.81366     -102.724 
9.29023e-05      8.61350     -63.0780 
5.69179e-05      6.98092     -85.5635 
3.41308e-05      4.08044     -90.8425 
0.000294959      8.32250     -61.5873 
0.000430086      19.0592     -69.7395 
9.35282e-05      7.64853     -64.4400 
0.000204189      3.32824     -62.0490 
6.37745e-05      7.03204     -64.7468 
0.000140559      18.9822     -69.8467 
3.29654e-05      18.1418     -62.4180 
0.000464228      2.05232     -127.875 
0.000334678      16.4738     -76.5205 
0.000172253      17.7723     -59.7993 
0.000177579      17.0269     -76.5514 
0.000122317      8.16088     -89.1575 
0.000298758      17.7604     -67.7673 
0.000361299      21.3008     -58.5934 
5.45345e-05      4.42741     -63.4349 
0.000644786      17.7999     -76.9475 
0.000500103      17.0126     -60.1799 
0.000255778      16.1047     -62.0029 
3.15445e-05      8.64083     -62.7232 
0.000144980      6.79300     -93.5448 
0.000138839      18.1950     -62.5055 
0.000217180      6.38288     -94.8531 
0.000237120      19.9520     -65.6701 
5.19104e-05     0.722496     -85.2364 
5.96127e-05      10.3273     -73.4602 
6.02574e-05      20.8801     -58.2739 
0.000280275      3.69524     -57.6002 
8.50602e-05      7.38390     -91.8626 
8.54751e-05      18.1697     -62.2503 
0.000361928      17.7608     -72.2996 
0.000129978      8.90449     -85.7493 
0.000134725      16.6904     -68.0456 
0.000109193      10.0501     -68.6432 
5.90515e-05      18.1792     -65.6343 
0.000277083      10.4167     -80.0494 
0.000130568      5.35111     -59.6973 
0.000112328      10.5411     -68.9859 
0.000180532      5.11269     -94.0377 
0.000233732      20.0314     -65.5845 
0.000340002      7.00665     -65.1906 
5.75816e-05      20.7770     -65.0631 
2.91310e-05      4.82394     -84.2894 
7.40898e-05      16.6126     -64.5456 
0.000259980     0.722496      48.3665 
5.70211e-05      6.30657     -68.8059 
0.000238896      9.46879     -84.1810 
0.000152284      13.9647     -71.7207 
0.000434476      13.0034     -79.3641 
7.14238e-05      9.63836     -79.5994 
0.000384090      16.8795     -57.7787 
0.000257976      20.8291     -58.1871 
0.000162885      3.30872     -94.1596 
0.000203734      4.08000     -90.0000 
0.000104883      8.16022     -89.5787 
5.40453e-05      17.8349     -74.1870 
0.000216267      20.8024     -64.9132 
0.000100559      4.87811     -58.0693 
2.72514e-05      7.92023     -61.4935 
2.71942e-05      3.07174     -102.407 
2.71526e-05      16.6385     -64.3590 
2.71383e-05      20.9914     -59.0362 
0.000192176      18.1545     -65.8068 
9.99063e-05      8.61371     -63.9704 
5.10752e-05      7.43274     -63.6418 
7.53570e-05      9.82096     -63.1219 
0.000275626      1.26143     -64.6538 
0.000124855      19.9768     -65.5133 
4.91041e-05      3.35678     -61.1443 
0.000523930      6.27739     -58.2849 
7.61302e-05      17.0853     -76.5982 
0.000212431      15.5206     -71.2849 
7.41433e-05      7.48655     -63.8457 
2.54629e-05      20.9091     -59.0926 
0.000195152      6.85288     -93.5138 
0.000324347      16.1330     -61.8147 
0.000192160      10.5197     -69.2910 
0.000208727      18.8518     -68.3340 
6.55536e-05     0.349857      30.9638 
0.000202344      17.8927     -74.2393 
4.89636e-05      8.26978     -61.3895 
0.000129607      5.40300     -60.0184 
0.000139136      3.33635     -52.3058 
4.63274e-05      9.17294     -74.0546 
9.78215e-05      16.8513     -72.5973 
0.000263089      7.44387     -91.8476 
0.000117219      10.4236     -66.2384 
6.78381e-05      5.52293     -91.8677 
9.35131e-05      19.9825     -70.5313 
0.000169109      20.3549     -59.7314 
9.15844e-05      18.2228     -62.3381 
0.000143653      21.3832     -58.5399 
2.40277e-05      5.95785     -71.2001 
0.000368771      18.9616     -70.0169 
4.71180e-05      8.10000     -90.0000 
0.000269047      14.7689     -79.4661 
0.000307624      13.5250     -64.2307 
0.000125272      15.1896     -66.9797 
0.000189634      17.0993     -76.4026 
0.000190764      17.7422     -59.9667 
0.000420069      22.2971     -60.6758 
4.49630e-05     0.349857     -59.0362 
0.000360066      19.3104     -73.7612 
0.000289543      18.4235     -55.4819 
0.000156173      3.08519     -103.496 
6.58895e-05      16.2102     -64.5731 
0.000293683      4.45982     -95.4038 
0.000137713      10.0845     -69.0849 
0.000402716      6.44798     -95.3392 
0.000270836      9.96542     -83.4312 
0.000145766      6.92604     -85.0303 
4.31716e-05      10.6958     -76.0417 
4.39797e-05      17.8484     -62.1428 
0.000397357      16.4599     -76.7236 
4.23692e-05      2.36677     -120.466 
2.26957e-05      20.3159     -62.3754 
2.26868e-05      7.86755     -61.2849 
2.25116e-05      9.79398     -63.4349 
7.85813e-05      14.0217     -71.7976 
0.000106443      8.16000     -90.0000 
0.000127113      4.89248     -66.8937 
0.000305990      7.46029     -64.2593 
0.000154964      20.3438     -62.2257 
0.000203746      21.2696     -58.7313 
7.44840e-05      8.69420     -62.9044 
0.000417470      20.0026     -70.3693 
8.26238e-05      4.82730     -57.6927 
9.87625e-05      21.4365     -55.3758 
0.000378897      17.8240     -55.5610 
0.000162430      11.6335     -57.2115 
0.000190830      9.91472     -86.8779 
0.000282254      21.3350     -69.9343 
0.000173978      14.2468     -81.7675 
2.12727e-05      14.3562     -63.9704 
0.000185101      13.3805     -77.8335 
0.000404264      3.37337     -51.4993 
2.09843e-05      16.6320     -73.6571 
0.000376529      21.3871     -55.2845 
5.89400e-05      8.58755     -64.3301 
5.99087e-05      18.2760     -62.4254 
7.62898e-05      7.81499     -61.0736 
0.000101909      17.3637     -77.0202 
0.000405912      22.8260     -58.1064 
3.89867e-05      5.46000     -67.3801 
2.04547e-05      9.60600     -77.0054 
0.000176357      6.22643     -57.9946 
0.000334224      8.35122     -61.2253 
0.000177314      14.4365     -63.8609 
2.02711e-05      11.3869     -68.0304 
0.000171198      9.74035     -63.2771 
3.74362e-05      17.6886     -58.7363 
0.000312949      13.1657     -83.4580 
2.00174e-05      9.58198     -67.9321 
3.32527e-05      1.23693     -112.834 
7.25728e-05      15.6785     -67.2621 
3.79421e-05      5.58516     -92.4628 
0.000136223      17.7394     -62.3949 
1.96972e-05      8.16750     -74.2281 
7.09254e-05      10.8137     -63.2928 
0.000103834      5.05284     -94.0856 
5.67314e-05      20.7863     -65.8024 
0.000144637      8.16022     -90.4213 
8.00302e-05      16.2644     -64.6639 
0.000447236      5.04143     -51.7662 
0.000167784      11.7436     -76.1058 
4.22799e-05      19.0385     -69.9089 
1.90418e-05      16.7582     -77.8050 
1.89140e-05      22.2448     -60.6002 
0.000250260      1.21342     -8.53077 
0.000486651      11.1647     -83.8298 
5.19180e-05      5.58290     -91.8476 
3.66653e-05      16.6152     -73.8557 
0.000161256      2.17495     -114.444 
0.000150848      18.5721     -62.2759 
0.000325322      11.6661     -56.9638 
-0.000239034     0.816088      126.027 
0.000270756      14.3062     -81.8019 
3.50193e-05      18.0918     -61.9052 
9.96614e-05      20.7618     -65.9534 
0.000284311      16.0518     -61.9023 
4.60268e-05      6.75233     -75.5933 
0.000176163      20.3032     -59.6461 
4.60940e-05      4.43878     -80.6650 
6.69241e-05      17.1135     -76.2074 
7.62581e-05      17.7791     -72.1154 
3.08934e-05      9.85207     -65.1517 
0.000131162      15.0662     -74.5247 
8.55812e-05      16.7685     -67.9321 
0.000141323      3.24888     -94.2364 
1.72977e-05      21.8290     -65.4778 
-0.000286576      9.37921     -93.6678 
3.34177e-05      9.62771     -79.9507 
0.000120552      18.4911     -62.3540 
4.87177e-05      9.40910     -84.1440 
0.000385957     0.732393      55.0080 
0.000118673      7.23715     -78.0379 
0.000234497      16.9116     -57.6068 
4.81290e-05      16.5987     -74.0546 
5.74425e-05      8.72170     -62.5535 
1.68955e-05      7.68023     -89.5524 
7.00548e-05      15.5191     -74.2980 
5.14193e-05      21.3557     -69.7831 
0.000218925      14.7580     -79.6952 
6.09975e-05      6.85682     -94.0142 
7.18060e-05      10.2157     -75.7189 
4.48876e-05      16.7456     -78.0056 
4.81439e-05      21.8539     -65.3347 
0.000109242      21.2994     -69.7273 
0.000103655      7.76253     -60.8594 
1.63700e-05      8.10089     -90.8488 
8.25016e-05      6.29628     -82.3332 
0.000192830      10.3930     -58.6959 
7.01330e-05      17.6373     -58.6351 
0.000151094      8.16088     -90.8425 
7.59677e-05      18.4576     -55.3284 
-0.000763127     0.732393      124.992 
7.25416e-05      20.3718     -62.0764 
2.82609e-05      4.40091     -64.1336 
4.43832e-05      21.4657     -58.4869 
5.88888e-05      9.97463     -86.8966 
2.91197e-05      5.77997     -94.7636 
6.99284e-05      17.7378     -67.9467 
5.54199e-05      15.6554     -67.4646 
7.31598e-05      17.1279     -76.0124 
0.000144519      20.7781     -58.0998 
1.52675e-05      18.1447     -61.9944 
0.000185657      21.3063     -69.2173 
0.000119915      6.95224     -64.9831 
4.20153e-05      5.95936     -57.7500 
4.33355e-05      9.69738     -79.6634 
5.40271e-05      5.64287     -91.8280 
0.000123862      18.4426     -55.0691 
1.49963e-05      5.40466     -67.1355 
0.000143464      8.82082     -90.7795 
4.26572e-05      8.28608     -79.9920 
8.25975e-05      21.8836     -65.5430 
0.000105505      5.05747     -94.7636 
2.87845e-05      3.09974     -104.574 
6.89500e-05      14.4630     -63.6475 
0.000141144      20.7374     -66.1048 
-0.000357258      2.07933     -46.1691 
7.87946e-05      17.9504     -74.2914 
1.47645e-05      9.91163     -87.2242 
0.000155362      8.10200     -91.2730 
2.80929e-05      9.40317     -84.5077 
0.000101931      21.3520     -58.6773 
7.60245e-05      16.6400     -74.3100 
4.12441e-05      17.6096     -70.7007 
9.01966e-05      13.4450     -64.3498 
0.000150191      20.8353     -72.3999 
3.99880e-05      6.92110     -85.5251 
0.000100209      6.39753     -69.6955 
4.96721e-05      17.8241     -59.8963 
0.000123255      17.1425     -75.8178 
4.97712e-05      14.5168     -63.7527 
1.34667e-05      1.98635     -115.017 
8.67660e-05      1.69387     -67.0679 
7.26360e-05      22.5352     -57.2831 
2.49409e-05      9.68679     -80.0126 
7.16792e-05      7.79192     -60.4740 
3.71398e-05      9.97156     -87.2409 
1.30018e-05      8.27587     -80.4011 
4.82273e-05      2.15081     -112.989 
3.69908e-05      1.28825     -62.2415 
-0.000308632      1.06151      42.7094 
8.29281e-05      17.6295     -70.5167 
0.000153496      1.27279     -8.13010 
5.92324e-05      3.11538     -105.642 
2.36488e-05      2.42981     -122.905 
4.77888e-05      12.0755     -62.7984 
3.64056e-05      15.6163     -70.9385 
1.26386e-05      9.75641     -79.7267 
0.000117805      18.4770     -54.9165 
1.25920e-05      8.31601     -81.2853 
3.52157e-05      9.39762     -84.8718 
4.64509e-05      8.30713     -81.6943 
4.68992e-05      21.9382     -65.6079 
1.22158e-05      5.38164     -59.1458 
1.21981e-05      20.3188     -61.9972 
3.47264e-05      12.5611     -71.0458 
4.65079e-05      15.1109     -67.1001 
-8.08917e-05      11.2878     -87.8676 
3.53590e-05      18.8615     -59.1925 
2.35756e-05      2.61947     -110.095 
1.20889e-05      16.6239     -74.5091 
3.44431e-05     0.339411     -45.0000 
1.20353e-05      8.37532     -81.3475 
0.000102602      9.80224     -93.8607 
3.47294e-05      10.4243     -58.4141 
2.28895e-05      4.08044     -72.8973 
2.32343e-05      6.45384     -95.8696 
1.17468e-05      2.25858     -73.0092 
4.52565e-05     0.961873      176.424 
3.39742e-05      5.33022     -58.8150 
1.16304e-05      16.2388     -64.8552 
1.15655e-05      15.8675     -73.0725 
2.26883e-05      11.7293     -76.3903 
1.14192e-05      13.3933     -77.5826 
3.34695e-05      11.7164     -57.1237 
1.13995e-05      20.4000     -61.9275 
1.13890e-05      2.27684     -71.5651 
1.13538e-05      14.5434     -63.5407 
2.23848e-05      22.2678     -60.8104 
2.23389e-05      15.5030     -74.5115 
2.22677e-05      7.50216     -91.3748 
3.33183e-05      15.0122     -61.0788 
2.21681e-05      5.84500     -95.3009 
1.11949e-05      13.3909     -64.2386 
1.11769e-05      14.0866     -76.2005 
1.11468e-05      3.72773     -56.8215 
1.11400e-05      5.32109     -97.1250 
1.11413e-05      2.92588     -118.142 
1.11111e-05      17.1573     -75.6236 
2.20525e-05      18.8100     -59.0989 
1.10841e-05      1.26570     -58.5704 
-1.09634e-05      9.30000     -53.1301 
1.09509e-05      6.45384     -69.8804 
1.08979e-05      15.5723     -65.4099 
