! Center RA: 05 05 23.18473,  Dec: +04 59 42.72447 (2000.0)
! Established model.
! Flux (Jy) Radius (mas)  Theta (deg)  Major FWHM (mas)  Axial ratio   Phi (deg) T \
! Freq (Hz)     SpecIndex
  0.502198      0.00000      0.00000 
 0.0519379    0.0400000      0.00000 
 0.0643133    0.0565685      45.0000 
 0.0293320     0.425206     -138.814 
 0.0329120     0.452548     -135.000 
0.00132280     0.113137      45.0000 
 0.0306854    0.0894427      63.4349 
0.00338823     0.481664     -131.634 
0.000667676     0.425206     -131.186 
0.00757405     0.456070     -127.875 
0.00382056    0.0800000      90.0000 
0.00201590     0.126491      71.5651 
0.00176075     0.164924     -165.964 
0.00438467     0.256125      51.3402 
0.000895833     0.488262     -124.992 
0.00407608      2.33649     -128.047 
0.000846929     0.544059     -126.027 
0.00196827      1.13701     -129.289 
0.00418394     0.215407     -158.199 
0.000800040     0.600000     -126.870 
0.00588283     0.312410      50.1944 
0.00144591      1.11212     -127.694 
0.00393510     0.656049     -127.569 
0.00556954      2.30512     -128.660 
0.00522124      1.16825     -128.047 
0.000846810     0.268328     -153.435 
0.00173978     0.712180     -128.157 
0.00438300     0.252982     -161.565 
0.00268580     0.339411      45.0000 
0.000252586     0.632456     -124.695 
0.000455250     0.576888     -123.690 
0.00150844      2.27403     -129.289 
0.000836577     0.768375     -128.660 
0.000409394      2.53645     -127.954 
0.000585015     0.501199     -118.610 
0.00311193      1.20000     -126.870 
0.000460045      2.59260     -128.108 
0.00226676      2.24321     -129.936 
0.000191423     0.395980      45.0000 
0.00210820      2.67372     -128.928 
0.000360085     0.565685      45.0000 
0.000274109      1.14403     -126.469 
0.00134583     0.793977     -130.914 
0.00116049     0.447214     -116.565 
0.000850754     0.622254      45.0000 
0.000167701      3.11333     -132.917 
0.000214233     0.850412     -131.186 
0.000471401      3.16986     -132.955 
0.000564542      3.22639     -132.990 
0.00167328     0.678822      45.0000 
0.000802425     0.200000      53.1301 
0.00159117      2.21269     -130.601 
0.00170175      2.64877     -128.254 
0.000261871      3.29314     -130.073 
0.000485574      3.29848     -129.094 
0.000237947      3.19725     -133.479 
0.00123794     0.820731     -133.025 
0.00139254     0.291204     -164.055 
0.000434569      3.30478     -128.118 
0.000548800      1.17644     -125.311 
0.000211600      3.14070     -133.452 
0.000754018     0.411825     -119.055 
0.000103173     0.282843      45.0000 
0.000202414      3.65141     -132.780 
0.000278687      3.16834     -133.977 
9.84829e-05      3.25601     -127.011 
9.67462e-05      3.67870     -133.238 
0.00183244     0.707672      47.2906 
0.000187101      3.23209     -126.444 
0.000185300      3.70621     -133.688 
8.93175e-05      3.20849     -125.870 
0.000260611      3.73524     -133.264 
0.000213800     0.304631     -156.801 
0.000709099     0.848528     -135.000 
0.000169464      3.18522     -125.287 
0.000466682      3.76277     -133.708 
0.000156937      3.19625     -134.493 
0.000159809      3.16228     -124.695 
0.000655468      2.21775     -129.144 
0.000150216      1.23223     -125.754 
0.000151406      3.13968     -124.095 
0.000322696      2.56811     -127.405 
0.000211424      3.11743     -123.486 
0.000660212      3.79051     -134.145 
0.000581600      1.25603     -127.235 
0.000133164      3.22441     -135.000 
0.000135029      3.12922     -122.471 
0.000481917     0.393954     -113.962 
0.000245607      3.10793     -121.849 
0.000236564     0.877268     -136.848 
6.12798e-05      3.09555     -122.869 
5.92174e-05      3.19625     -135.507 
0.000114379      3.81848     -135.424 
0.000112268      3.08700     -121.218 
5.71672e-05     0.341760     -159.444 
5.61176e-05      3.07402     -122.242 
0.000143615      3.81848     -134.576 
0.000162808     0.933809     -133.264 
0.000642882      2.16813     -127.504 
0.000353885     0.906863     -131.424 
0.000396906     0.937230     -129.806 
0.000214523      3.30938     -135.490 
0.000372950     0.256125     -141.340 
0.000134568      2.75071     -130.872 
0.000540431     0.594643      42.2737 
0.000132077      3.33802     -135.971 
6.61437e-05      3.73395     -135.868 
0.000116522     0.624820      39.8056 
0.000186457      3.76277     -136.292 
6.31288e-05      2.69429     -130.786 
6.10305e-05      2.72470     -130.236 
0.000115394      1.08812     -126.027 
0.000116919      3.36690     -136.444 
0.000115035      2.66833     -130.135 
0.000170611      3.76191     -135.431 
0.000218989      2.14401     -126.656 
0.000168865     0.233238     -149.036 
5.45600e-05      2.69904     -129.588 
5.41002e-05      3.39600     -136.909 
0.000105710      3.06203     -123.275 
0.000253496      3.79051     -135.855 
5.23953e-05      1.12071     -124.824 
0.000318454      2.64273     -129.472 
0.000147821      3.04026     -122.645 
0.000533528     0.120000      90.0000 
0.000619450     0.651153      42.5104 
4.90853e-05     0.312410     -129.806 
4.83176e-05      3.45485     -137.816 
0.000135620      2.12038     -125.789 
0.000133218     0.877268     -133.152 
0.000180250      3.05287     -121.608 
8.89102e-05     0.312410     -140.194 
0.000261746      3.81932     -136.273 
8.50434e-05     0.344093     -125.538 
4.23030e-05      3.45809     -138.752 
0.000237667      3.03210     -120.964 
0.000222761      3.84832     -136.685 
0.000111602      2.09724     -124.902 
3.84190e-05      3.48827     -139.185 
0.000143899      2.61748     -128.797 
0.000199558     0.377359     -122.005 
0.000172906      3.01171     -120.311 
6.69086e-05      1.52053     -153.435 
6.71421e-05      3.51864     -139.611 
3.48697e-05      3.66191     -130.126 
0.000682695      1.50306     -154.799 
0.000125510      3.87752     -137.090 
0.00117592      4.61250     -133.243 
0.000483719     0.651153      47.4896 
0.000122779      2.62420     -127.569 
6.16285e-05      3.68782     -130.601 
8.97990e-05      2.07461     -123.996 
0.000207855      2.99172     -119.650 
0.000205090      3.90692     -137.490 
0.000307379     0.126491      108.435 
0.000103818      2.60000     -126.870 
0.000151873      2.97214     -118.980 
2.64780e-05      3.54920     -140.029 
2.63170e-05      3.66715     -129.245 
4.98795e-05      2.05251     -123.071 
2.39026e-05      3.64856     -127.875 
4.53345e-05      3.57994     -140.440 
0.000106558      2.57620     -126.158 
0.000168234      2.95296     -118.301 
6.45976e-05      3.60555     -123.690 
6.15126e-05      2.06495     -121.535 
0.000100439      3.93650     -137.883 
0.000378010      1.07703      15.0685 
2.04154e-05      2.84113     -144.744 
0.000182766     0.160000      90.0000 
9.37267e-05      3.59555     -122.276 
0.000112440      3.61087     -140.845 
0.000308199      2.87388     -145.204 
1.90453e-05     0.624820      50.1944 
0.000146771      2.93421     -117.613 
8.33213e-05     0.632456      55.3048 
3.39207e-05      2.04431     -120.579 
0.000166409      3.96626     -138.270 
6.50954e-05      3.57435     -121.734 
-0.00135863      1.20067      29.9816 
6.04453e-05      2.55280     -125.433 
0.000171546     0.744043     -126.254 
4.39396e-05      1.28810     -126.158 
5.87113e-05      2.91781     -146.746 
7.35391e-05     0.656049      52.4314 
4.36923e-05      3.58776     -120.854 
0.000285112      1.08812      17.1027 
4.01583e-05      2.02425     -119.604 
9.37006e-05      3.56741     -120.303 
-0.000604277      1.95673     -139.145 
9.95036e-05      2.91589     -116.917 
5.31427e-05     0.681175      49.7636 
0.000178734      1.48647     -156.194 
0.000119256      2.90682     -145.654 
5.08858e-05      1.31210     -127.569 
5.51553e-05      2.60860     -125.640 
4.77783e-05      1.98957     -120.174 
0.000110389     0.144222      123.690 
5.67675e-05      1.33686     -128.928 
6.35592e-05     0.329848     -165.964 
0.000149891     0.164924      104.036 
5.51487e-05     0.735391      45.0000 
1.11058e-05      3.73738     -132.397 
5.29228e-05      1.96977     -119.168 
3.76310e-05      3.58575     -141.340 
5.13758e-05      2.91671     -115.159 
6.64906e-05      3.76447     -132.847 
0.000249694      1.10055      19.0935 
5.08925e-05      1.36235     -130.236 
7.94218e-05     0.764199      42.8789 
6.49671e-05      1.93494     -119.745 
6.30231e-05      1.38852     -131.496 
6.13078e-05      2.89993     -114.444 
-0.000220934      2.10523     -141.170 
8.01909e-05     0.793977      40.9144 
3.44242e-05     0.322490     -172.875 
-0.000260212      4.29958     -135.754 
9.59968e-05      1.91541     -118.706 
1.65455e-05      3.99620     -138.652 
7.16520e-05      1.41534     -132.709 
7.33813e-05     0.824621      39.0939 
8.32882e-05     0.600000     -53.1301 
1.60163e-05      3.56270     -118.867 
0.000137266      4.61112     -133.946 
-3.87118e-05     0.690507     -10.0080 
0.000170111      1.11427      21.0375 
2.20894e-05      2.88361     -113.720 
-9.45058e-05     0.651153     -10.6197 
4.32421e-05      1.44278     -133.877 
2.89954e-05      3.84666     -135.000 
2.16895e-05     0.856037      37.4054 
2.14484e-05      3.79178     -133.290 
3.56614e-05      1.88043     -119.291 
