! Center RA: 19 27 48.49515,  Dec: +73 58 01.56986 (2000.0)
! Established model.
! Flux (Jy) Radius (mas)  Theta (deg)  Major FWHM (mas)  Axial ratio   Phi (deg) T \
! Freq (Hz)     SpecIndex
  0.365441    0.0400000      180.000 
  0.377538    0.0800000      180.000 
  0.127905     0.203961     -11.3099 
  0.190674     0.126491      161.565 
  0.279987     0.243310     -9.46232 
  0.446330     0.164924      165.964 
 0.0706063     0.282843     -8.13010 
  0.398854     0.291204     -15.9454 
  0.510922     0.203961      168.690 
  0.365759     0.329848     -14.0362 
0.00793904    0.0894427      63.4349 
 0.0946443     0.113137      45.0000 
 0.0406448     0.252982      161.565 
 0.0141333     0.379473     -18.4349 
 0.0505762     0.417612     -16.6992 
 0.0560870     0.291204      164.055 
 0.0470844     0.456070     -15.2551 
 0.0185238     0.144222      56.3099 
 0.0316099     0.341760      159.444 
0.00470996     0.233238     -149.036 
 0.0462495     0.494773     -14.0362 
 0.0166246     0.256125     -141.340 
0.00825887     0.120000      0.00000 
0.00809933     0.164924      75.9638 
 0.0115720     0.357771      153.435 
0.00387657     0.126491     -18.4349 
 0.0238932     0.203961      78.6901 
0.00377337     0.379473      161.565 
 0.0353093     0.282843     -135.000 
0.00724963     0.164924     -14.0362 
 0.0330367     0.533667     -12.9946 
 0.0368001     0.393954      156.038 
 0.0186704     0.178885     -26.5651 
 0.0212666     0.243310      80.5377 
 0.0167791     0.565685     -8.13010 
 0.0147535     0.200000     -36.8699 
 0.0157071     0.572713     -12.0948 
 0.0184686     0.430813      158.199 
 0.0147386     0.233238     -30.9638 
 0.0596974     0.312410     -129.806 
 0.0205870     0.280000      90.0000 
 0.0440863     0.605310     -7.59464 
 0.0265804     0.447214      153.435 
 0.0159784     0.256125     -38.6598 
 0.0292715     0.282843      81.8699 
0.00689332     0.501199     -28.6105 
0.00261941     0.468188      160.017 
 0.0181946     0.226274     -45.0000 
 0.0144860     0.483322      155.556 
0.00610157      4.54119      162.044 
0.00519308      4.42285      155.985 
0.00611584      1.09836      169.509 
 0.0114442      4.57926      162.198 
0.00677694      4.20019      160.530 
0.00842629     0.644981     -7.12502 
0.00588936     0.268328      63.4349 
 0.0166649     0.987927      148.241 
 0.0120725      1.41365      154.885 
 0.0230496      4.16250      160.346 
 0.0195437      4.22147      167.412 
0.000928645     0.536656     -26.5651 
 0.0139091      4.43928      155.513 
0.00263169     0.466476      149.036 
0.00785569     0.521536     -32.4712 
0.00828271      1.05224      171.254 
0.00799473     0.291204      74.0546 
0.000835504     0.322490      97.1250 
 0.0110009      4.61736      162.350 
0.00373210      4.84314      157.671 
0.00318558     0.400000      126.870 
0.00355266     0.494773      165.964 
0.00751981     0.555698     -30.2564 
 0.0197149      3.81093      154.511 
0.00656834      1.39714      156.371 
 0.0178953      4.85848      157.235 
 0.0143366     0.641249     -3.57633 
 0.0123334     0.256125     -51.3402 
0.00124163     0.486621      170.538 
0.00123509      1.09179      171.573 
0.00352268     0.425206      131.186 
 0.0104119     0.288444      56.3099 
0.00405268     0.526118      171.254 
0.00467566      1.34937      168.024 
0.00256282      1.77539      157.479 
0.00138243     0.932952      149.036 
0.00260783     0.393954      113.962 
0.000503347      1.38852      168.366 
0.00453572     0.954149      146.976 
0.00901738      1.37753      154.179 
0.00279354     0.304631      66.8014 
0.00139507      4.64362      162.970 
0.00810467     0.967471      172.875 
0.00571146      1.81240      157.964 
0.000925759      1.42042      170.272 
0.00580195      5.33322      158.438 
0.000748941     0.233238     -59.0362 
0.00442403     0.521536      175.601 
0.00132958      4.74401      165.847 
0.00691981      4.41977      154.826 
0.000434093      1.53883      171.027 
0.00519106     0.288444     -123.690 
0.00150909      1.00717      173.157 
0.000817337      1.57277      172.694 
0.00584949      4.78280      165.964 
0.00526987      2.80913      160.017 
0.00624569      1.30231      169.380 
0.00647365     0.411825      119.055 
0.00280964      1.61245      172.875 
0.00335271      2.84675      160.292 
0.00465185      1.84954      158.429 
0.00727191      5.34805      158.039 
0.00297370     0.576888     -33.6901 
0.00405596     0.898888      147.724 
0.00148112      2.40133      150.018 
0.00529581      3.38136      152.526 
0.00373026      4.88016      157.850 
0.00398749      3.50383      161.358 
0.00172100      4.26052      167.530 
0.00472163      5.08567      172.316 
0.000759547     0.565685      171.870 
0.000281349      4.92016      152.393 
0.00242735      2.45601      149.676 
0.00280725      4.93883      151.982 
0.00322446     0.561427      175.914 
0.00333812      3.76595      167.735 
0.000240566     0.544059     -36.0274 
0.00234757      1.65215      173.047 
0.00151940      4.77326      166.430 
0.000226863      2.36677      149.534 
0.00381294     0.681175     -3.36646 
0.000874320      5.12640      163.686 
0.00177065      2.16333      146.310 
0.00463264      5.97301      163.264 
0.00230170      4.97417      152.199 
0.000783919      5.15379      164.238 
0.000706424      1.91039      160.427 
0.000582515      4.36495      153.905 
0.00106617      4.25206      168.056 
0.000198585      5.16124      165.641 
0.00222181     0.312410      50.1944 
0.00205357     0.282843     -45.0000 
0.00115524      2.72382      150.046 
0.000534528      4.32962      152.488 
0.000704654      5.25875      166.809 
0.00186022      3.16809      142.696 
0.00128607      1.88680      158.875 
0.00161986      4.29418      152.241 
0.00158917      2.34776      134.310 
0.000328718      5.93471      163.153 
0.000161477     0.481664      138.366 
0.000721674      1.24258      146.821 
0.000997446      5.29770      166.908 
0.00117878      2.49062      150.141 
0.000427005      4.72508      166.787 
0.000424406      4.27776      151.518 
0.000495336     0.923472      175.030 
0.000412543      12.5302      174.872 
0.000139402      4.29120      168.166 
0.00128531     0.520000      180.000 
0.000273235      4.23792      160.710 
0.000137239      3.82832      153.970 
0.000722713      2.75855      150.461 
0.000132031      4.32666      160.560 
0.000560434      4.88786      158.895 
0.00139585      4.31129      152.959 
0.00153591      4.86522      158.286 
0.000171084      5.09400      164.982 
0.000943144      1.25539      149.349 
0.00161221     0.611882      168.690 
0.000327617      5.13264      165.097 
0.000623149      4.73439      166.316 
0.000315759      1.20067      150.018 
0.00124891      1.35823      166.373 
0.000596941      5.14307      164.667 
0.000697984      3.79241      153.705 
0.000415891      1.16619      149.036 
0.000280700      4.58170      167.905 
0.000408402      5.28136      158.682 
0.000141178      4.67470      156.286 
0.000270889     0.357771     -26.5651 
0.000400631      5.17131      165.211 
0.00213805      3.75659      153.435 
0.000135922     0.441814     -5.19443 
0.00181974      4.25883      151.991 
0.000422106      4.76923      157.306 
0.00189748      4.57349      168.395 
0.000383783      2.52539      150.593 
0.000246027      4.49230      155.260 
0.000359707     0.481664     -4.76364 
0.000587838      3.70297      153.712 
0.000930357      5.20000      165.750 
0.000244670     0.344093     -35.5377 
0.000340312     0.521536      147.529 
0.000118031      2.66923      150.362 
0.00155655      5.12531      172.376 
0.000116097     0.572713      167.905 
0.000113666      4.52866      155.472 
0.000897954     0.312410     -39.8056 
0.00234483      4.88475      152.176 
0.000109131     0.521536     -4.39871 
0.000107007      3.66715      153.435 
0.000389745     0.526118     -8.74616 
0.000604440      4.53431      168.294 
0.000563912      3.43535      152.241 
0.000440967      2.10789      146.611 
0.000532048      4.40218      160.907 
0.000271529     0.488262      145.008 
0.00133062     0.268328     -116.565 
0.000398614      2.43606      150.489 
0.00139626      17.7710      167.653 
8.99237e-05     0.605310      172.405 
0.00247559      13.0340      172.417 
0.000630455      6.01132      163.374 
0.000252182     0.808950      171.469 
0.00135642      9.95044      163.896 
0.000763055     0.452548      135.000 
0.00128952      2.60461      137.490 
0.000633595      2.84788      150.555 
0.000930574      14.8063      157.106 
0.00155106      2.32000      133.603 
0.000802694      5.99426      158.057 
0.00257507      6.74341      162.747 
0.000152213      3.40000      151.928 
0.00118464      6.63578      171.333 
0.000482105      1.69186      173.211 
0.00105743      10.3174      157.910 
0.000583146     0.848528      171.870 
0.00136764      2.24036      178.977 
0.00187178      8.95545      172.558 
0.000147265      7.11640      171.597 
0.000410734      8.00340      169.926 
0.000322356      5.37044      158.595 
0.000682865      15.6287      173.239 
0.000806152      11.6289      154.316 
0.000259645      7.15598      171.643 
0.000190114      4.68956      171.663 
-0.00274385      5.41302      149.835 
0.000649685      15.5890      173.221 
0.000250228      5.76999      163.072 
6.70259e-05      4.08725      159.969 
0.000564344      2.77157      159.734 
0.000535214      9.82405      163.926 
0.000257743      14.7908      157.249 
-0.00152458      3.14350      165.256 
6.61163e-05      3.69670      144.246 
0.000125499      4.52637      168.789 
0.000313942      12.6097      163.980 
0.000247213      4.17267      150.732 
6.47558e-05      1.87275      160.017 
0.000660046      12.6098      174.904 
-0.00216818      13.9426      162.813 
0.00172297      17.0537      160.545 
-0.000986269      12.8738      165.791 
0.000460220      17.7320      167.625 
0.00142425      9.60975      164.055 
-0.00474514     0.815843      11.3099 
0.000483827     0.561427     -4.08562 
0.000615111      3.27536      151.557 
0.000120459      5.18166      164.784 
0.000514046      11.5909      173.660 
0.000673868      5.60643      172.621 
0.000174976      4.44000      161.075 
0.000117477      3.70621      145.109 
6.15948e-05      1.30599      152.650 
0.000352586      7.68427      166.759 
0.00114178      14.7539      157.189 
0.000894459      12.6482      164.030 
0.000727299      8.08920      169.746 
0.000526671      6.09944      163.229 
-0.00101336      6.53911      156.571 
0.000114879      8.49969      166.945 
0.000194192      4.28803      143.344 
-0.00446602      1.16619     -174.094 
0.000993119     0.601332     -3.81407 
0.000112053      1.34164      153.435 
0.000354025      7.16190      171.327 
5.60888e-05      17.7796      167.527 
0.000719291      6.20735      153.600 
0.000801121      15.3327      159.059 
0.000627688      8.53867      167.005 
0.000625634     0.888144      172.235 
0.000380181      5.73174      162.956 
-0.00101423      7.61577      156.801 
0.000190708      4.10366      136.975 
0.000286810      8.14607      161.387 
-0.000972815      12.5743      156.371 
0.00175659      11.5756      154.409 
5.34849e-05      4.48714      168.690 
5.32105e-05      10.4065      163.934 
0.000227003      5.16480      163.811 
-0.000831361      18.8216      171.198 
0.000149409      10.4449      163.994 
0.000429433      10.8731      169.186 
0.000336085      4.73236      157.119 
5.16974e-05      16.4858      174.151 
0.000192677      5.38516      158.199 
0.000916444      1.31027      167.661 
-0.000745651      15.7968      163.676 
0.000873605      11.5511      173.638 
0.000150018      10.4736      161.288 
0.000590826      16.5256      174.165 
0.000146551      17.6929      167.598 
9.37752e-05      4.36953      168.381 
0.000744913      7.20544      177.773 
0.000134358      6.03138      158.199 
-0.000191721      11.6399      156.077 
0.00121576      2.63424      138.077 
0.000581827     0.927793      172.569 
-0.000348347      12.5376      156.297 
-0.00141727      3.10483      165.069 
4.70089e-05      4.72356      172.213 
0.00102748      10.4944      163.845 
9.10569e-05      3.71849      168.207 
-0.000807622      11.6034      155.997 
-0.000219917      6.67329      152.513 
0.000177585      17.6538      167.570 
0.000166364      15.7129      173.128 
-0.000763480      8.81099      177.138 
-0.000831984      10.8924      177.264 
0.000201067      11.0880      163.657 
-0.000977376      7.86903      172.405 
0.000790283      14.2611      166.042 
0.000211691      16.3836      162.671 
0.000691600      12.6866      164.079 
-0.000883660      12.1813      176.611 
-0.000488613      12.8253      165.920 
8.36329e-05      4.20761      150.998 
0.000492401      15.7526      173.146 
0.00155627      7.71378      170.147 
-4.21461e-05    0.0894427      153.435 
0.000248703      4.36440      160.735 
0.00184906     0.377359      122.005 
0.000465324      18.3017      168.911 
0.000197845      9.59483      171.127 
0.000118749      5.65714      175.539 
8.23074e-05      5.70656      153.794 
0.000117906      4.69553      156.930 
0.000117705      3.73909      145.460 
-4.12581e-05      3.05601      165.600 
0.000915659      3.31059      151.887 
0.00145922      1.35351     -161.030 
-0.000269703      6.63783      152.354 
4.05238e-05      11.7593      168.423 
-0.00156983      7.03420      165.174 
4.04242e-05     0.312410     -140.194 
0.000781582      5.67070      153.616 
0.000190083      13.1368      159.689 
3.98027e-05      14.8123      167.840 
0.000219227      16.4175      172.581 
0.00205272     0.357771      116.565 
0.000499856      16.3455      162.629 
-0.00113518      11.5741      161.878 
0.000143990      17.4165      169.413 
0.000146316      2.29260      132.879 
0.000111707      11.7984      168.461 
0.000412256      8.12108      161.030 
0.000139218      5.17610      163.386 
-7.58563e-05      17.5658      159.749 
7.50371e-05      6.12052      158.129 
0.000169578      16.1510      176.450 
-0.000734215     0.888144      125.838 
0.000487562      2.47935      169.778 
0.000330614      9.58874      171.363 
0.000477509      9.86249      163.991 
-0.000467438      17.5797      159.627 
-0.000179548      1.01272     -170.910 
-0.000208685      15.8352      163.717 
0.000257314      4.65876      156.737 
0.000907006      15.2954      159.006 
0.000103237      10.2653      158.033 
0.000202773      6.15766      158.268 
-0.00239623      2.39266      141.789 
0.000134608      5.69351      162.838 
3.60067e-05      18.8045      173.404 
0.000757057      14.7695      157.046 
-0.000105527      15.4901      156.083 
0.000203119      12.7329      174.773 
7.04191e-05      3.77211      145.804 
0.000121675      6.06116      163.120 
0.000479160      18.7647      173.390 
3.55830e-05     0.252982     -108.435 
-0.000655986     0.721110     -160.560 
3.53410e-05      11.1264      163.715 
-0.000331111      12.2195      161.091 
0.000315975      13.0993      159.628 
-0.000724193      6.61937      152.661 
0.000622388      17.0113      175.550 
0.000159009      11.7513      168.614 
0.000220277      8.04279      169.976 
3.38830e-05      11.1648      163.773 
-0.000165727      9.96281      168.419 
0.000177794      5.64610      172.674 
-0.000368913      15.4740      156.218 
-0.00110379      7.82938      172.367 
0.000319565      8.57765      167.065 
6.56634e-05      4.13783      150.461 
3.32930e-05      11.2306      164.083 
0.000157032      16.4571      172.599 
-3.31402e-05      14.9069      159.912 
9.66296e-05      3.80526      146.143 
6.45493e-05      13.0824      164.391 
0.000189627     0.215407     -68.1986 
9.67091e-05      11.2691      164.138 
-3.23388e-05      10.0058      162.072 
-0.00149154      5.01932      174.971 
-0.000723345      12.0774      172.004 
0.00269312     0.256125     -128.660 
-0.000153580      14.9444      159.964 
0.000619513      12.6372      164.204 
0.000409182      7.20755      171.060 
-9.30316e-05      14.8790      164.245 
-0.000641427      9.96779      162.001 
-0.000266205      12.5863      167.333 
-0.000627306      9.92363      168.373 
3.18234e-05      10.8807      168.979 
6.22782e-05      17.5757      167.514 
-9.12688e-05      15.8848      163.619 
0.000296408      12.7728      174.789 
-0.000452168      12.0795      166.792 
0.000319969      1.73159      173.367 
0.000207089      11.3076      164.194 
6.13703e-05      4.08862      149.421 
-0.00152577     0.683520     -159.444 
0.000146510      10.9199      169.019 
-0.000793224      5.25479      149.335 
3.07602e-05      3.83854      146.476 
-8.84024e-05      3.01728      165.411 
3.06169e-05      7.56265      178.485 
-0.000477175      12.3279      177.955 
0.000138933      10.2282      157.949 
0.000447998      12.7576      159.633 
0.000165344      6.19484      158.405 
3.00891e-05      3.87195      146.802 
0.000310686      13.7275      166.004 
0.000172599      3.93914      147.440 
0.00109659     0.203961     -78.6901 
0.000109049      2.20000      180.000 
0.000186199      17.5367      167.485 
-0.000665005     0.856037      127.405 
0.000169514      11.7905      168.652 
-0.000339493      3.23110      164.932 
-0.000347271      14.8514      164.055 
0.000289866      9.62829      171.399 
0.000681174      5.00112      172.648 
0.000156483      2.72029      160.233 
5.70003e-05      13.1703      164.318 
0.000178019      1.36059      155.695 
-0.000314838     0.662118      25.0169 
0.000464402      7.60379      178.191 
-0.000692200      7.92040      179.421 
0.000334047      16.4520      172.737 
2.89949e-05     0.480000      180.000 
7.95453e-05      5.65530      162.719 
0.000407788      2.07461      146.004 
5.48252e-05      4.05423      149.133 
-0.000351773      10.9795      161.301 
-0.000155157      15.9232      163.659 
2.83114e-05      17.0294      160.373 
7.85108e-05      14.3949      161.867 
-0.000575568      9.75680      159.856 
-0.000181857      14.9820      160.017 
5.34787e-05      6.24320      153.763 
0.000497023      3.97291      147.750 
0.000406289      11.3460      164.249 
0.000157377      18.7250      173.376 
-0.000301604      2.92985      165.774 
5.43196e-05      8.12857      169.796 
5.46264e-05      16.9198      159.809 
-0.000160541      15.4374      156.158 
0.000173073      5.11124      162.699 
0.000176967      15.5850      160.821 
-0.000747489     0.576888     -56.3099 
0.000324748      5.63489      153.435 
0.000108030      12.8163      174.627 
-0.000324102      10.8906      177.474 
7.72212e-05      18.3409      168.935 
0.000175209      12.1754      157.395 
2.70288e-05      12.6794      169.824 
-0.000394024      12.5952      167.155 
0.000150175      18.7204      173.498 
0.000271076      10.9970      171.634 
0.000151399      14.2223      166.003 
9.73962e-05      17.3772      169.388 
5.32698e-05      9.57129      163.989 
0.000271026      16.9337      159.682 
0.000202543      12.6724      170.002 
0.000175497      11.6265      170.894 
9.88265e-05      7.24398      178.101 
-9.85664e-05      16.1850      159.908 
0.000266908      12.8561      174.644 
7.23774e-05      4.62203      156.541 
-0.000195264      17.7316      174.174 
7.24896e-05      2.88278      150.945 
-5.06126e-05      13.4465      161.080 
-0.000193557      15.4008      156.098 
4.80190e-05      8.08218      170.025 
-0.000332392      7.46201      164.772 
-0.000260452      6.99554      165.090 
0.000188396      8.61561      160.471 
0.000118683      8.16794      169.846 
9.48816e-05      10.8465      163.503 
-0.000189408      9.88445      168.326 
9.45643e-05      10.9510      156.994 
4.82186e-05      7.75763      159.790 
2.46756e-05     0.233238     -120.964 
-7.09412e-05      13.3957      161.186 
7.09391e-05      5.65134      172.271 
4.70435e-05      16.1111      176.441 
-0.000139720      16.1842      168.162 
-0.000371949     0.665733      122.735 
-0.000185924      14.8625      163.906 
2.41473e-05      13.2088      164.364 
9.26795e-05      11.8297      168.690 
4.67011e-05      10.1761      158.073 
0.000114923      12.6330      169.971 
-6.91411e-05      8.39447      174.806 
2.35595e-05      2.16000      180.000 
6.89217e-05      7.63623      166.983 
6.86593e-05      16.9714      175.539 
6.82852e-05      9.62239      171.634 
-2.32418e-05      8.77104      177.125 
6.86887e-05      15.2507      166.037 
6.80657e-05      7.72010      159.687 
-9.13250e-05      1.20599     -174.289 
4.56369e-05      18.6807      173.484 
2.30058e-05      8.60781      167.385 
-0.000386141     0.432666     -123.690 
-4.53834e-05      6.06340      165.872 
2.29120e-05      13.0479      159.732 
2.26692e-05      17.4976      167.457 
-4.49797e-05      15.3480      156.174 
2.26284e-05      9.73612      164.022 
4.50298e-05      6.78162      162.848 
2.25751e-05      11.4769      165.673 
-4.48762e-05      6.60388      173.392 
2.25673e-05      1.76726      174.806 
-2.24673e-05      16.1337      159.993 
2.24189e-05      16.9574      159.855 
-2.22988e-05      1.40228     -176.730 
-2.22884e-05      18.6656      166.113 
-2.22711e-05      11.5617      162.067 
