! Center RA: 16 38 13.45630,  Dec: +57 20 23.97899 (2000.0)
! Established model.
! Flux (Jy) Radius (mas)  Theta (deg)  Major FWHM (mas)  Axial ratio   Phi (deg) T \
! Freq (Hz)     SpecIndex
  0.669645      0.00000      0.00000 
 0.0734585    0.0400000      0.00000 
 0.0118135     0.164924     -165.964 
0.00762181    0.0800000      0.00000 
 0.0173731     0.203961     -168.690 
0.00716934     0.126491      18.4349 
 0.0249774     0.164924      14.0362 
 0.0232851     0.243310     -170.538 
 0.0266043     0.203961      11.3099 
 0.0328479     0.282843     -171.870 
0.00448220     0.200000      0.00000 
 0.0214727     0.240000      0.00000 
 0.0274434     0.322490     -172.875 
 0.0171969     0.243310      9.46232 
0.00995294     0.329848     -165.964 
 0.0224139     0.280000      0.00000 
 0.0171276     0.362215     -173.660 
 0.0176789      1.43108     -153.435 
 0.0199897     0.282843      8.13010 
 0.0116314     0.950789     -157.751 
0.00989662      1.96977     -150.832 
0.00272722     0.368782     -167.471 
0.00209839      1.93494     -150.255 
0.00156477     0.341760     -159.444 
0.00459290      2.02386     -161.565 
0.000470564     0.944034     -143.616 
0.00137211     0.344093     -144.462 
0.000554303     0.360000      180.000 
0.00499031      1.95510     -149.237 
0.00139647     0.968297     -141.710 
0.00153707     0.362215      173.660 
0.00127041     0.974064     -160.821 
0.00357490     0.339411     -135.000 
0.00224114     0.963328     -138.366 
0.00371447     0.368782      167.471 
0.000394139     0.961665     -163.072 
0.00110678      1.00000     -163.740 
 0.0106838      2.01157     -162.646 
0.00277047     0.989545     -165.964 
0.00742114     0.990353     -136.637 
0.000632334      1.41365     -154.885 
0.00359891     0.379473      161.565 
0.00539256      1.97585     -148.241 
0.00809818     0.344093     -125.538 
0.000282986      1.36704     -159.444 
0.000275510      1.46860     -150.642 
0.000267347      1.35351     -161.030 
0.000262867      1.48862     -149.300 
0.00122615     0.980612     -168.232 
0.00321498      1.34104     -162.646 
0.00157892      1.50944     -147.995 
0.00470699     0.320000      0.00000 
0.00546676     0.357771      153.435 
0.000458829      1.49773     -145.886 
0.00148301      2.43343     -154.699 
0.00176374     0.973242     -170.538 
0.000220808      1.48054     -141.582 
0.00136830      1.99720     -147.265 
0.000804287      1.44499     -138.366 
0.00106219      1.89694     -137.564 
0.00296597      2.46966     -155.095 
0.00345584     0.252982      71.5651 
0.000528432      2.28806     -143.531 
0.000661545      1.41534     -137.291 
0.00239749     0.967471     -172.875 
0.00100973      2.32034     -144.118 
0.00182850      1.89526     -135.855 
0.00163247      1.54350     -148.782 
0.00104154      2.45308     -155.943 
0.000415924      1.38622     -136.169 
0.00207164      2.34401     -143.326 
0.00202533     0.357771     -116.565 
0.000353634      1.41421     -135.000 
0.00134781      2.53298     -164.427 
0.00108142     0.393954      156.038 
0.00118320      1.32966     -164.291 
0.000886627      1.38622     -133.831 
0.000291988     0.377359      147.995 
0.00121047      1.92333     -135.000 
0.000991706     0.963328     -175.236 
0.000471127      1.52315     -150.068 
0.000264653      2.00998     -148.841 
0.00160490      5.00959     -152.412 
0.00100595      5.70670     -152.896 
8.52445e-05     0.976524     -145.008 
0.00211624     0.322490     -7.12502 
0.000236800      3.19700     -148.299 
0.00110123      5.21552     -156.975 
7.97547e-05     0.967471     -150.255 
-0.00884085    0.0565685     -135.000 
0.000893715      5.68859     -153.255 
0.000224723     0.407922      168.690 
0.00121004      3.25208     -148.069 
0.000134033      3.65929     -164.141 
0.000354991      1.35882     -132.614 
0.000194610     0.401995      174.289 
0.000382748      2.56125     -165.530 
0.000709874      3.68717     -164.908 
0.000921321      4.29120     -163.761 
0.000542193     0.400000      180.000 
0.000460392      1.59850     -148.299 
0.000362628      1.29120     -163.811 
0.000967637      1.01823     -135.000 
0.000107738      1.31939     -165.964 
0.000104913     0.401995     -174.289 
0.000500733      4.87229     -167.675 
-0.00142108     0.582409      15.9454 
0.000197715      4.76151     -158.824 
0.000414850      1.89526     -134.145 
0.000355472      1.28062     -165.530 
0.000408977     0.256125      51.3402 
0.00145527     0.322490     -119.745 
-0.00201460     0.735391      157.620 
-0.00209358     0.624820     -129.806 
9.04771e-05      4.50031     -149.560 
0.000383009      5.92324     -163.523 
0.000255855      3.73631     -158.654 
4.53020e-05     0.379473     -161.565 
0.000168062      6.23179     -150.803 
-0.000462147      5.36656     -153.435 
0.000837127      4.78464     -159.444 
4.40166e-05      1.33207     -131.348 
0.000125346      5.90512     -158.127 
0.000376595      3.17238     -156.991 
0.000167193      5.17873     -156.801 
0.000205605     0.990353     -133.363 
4.26305e-05      1.67523     -146.689 
4.17960e-05      1.94196     -147.619 
4.10931e-05      1.57785     -149.534 
8.06672e-05      3.30720     -147.848 
4.02693e-05      1.73066     -146.310 
4.02139e-05      4.74721     -159.274 
4.02264e-05      8.44824     -155.376 
3.98927e-05      4.44558     -149.744 
0.000587353      1.48486     -152.745 
0.000797114      6.24474     -152.122 
0.000333428      1.50360     -151.390 
0.000204237      1.07703     -164.932 
0.000592497      3.93650     -152.133 
4.03411e-05      1.00955     -146.310 
4.00746e-05      2.03096     -147.875 
0.000112315      1.02450     -141.340 
0.000140727      1.84391     -139.399 
0.000200699      1.06733     -167.005 
0.000177477      2.29713     -144.926 
6.88503e-05      3.78819     -158.311 
0.000246156      2.41661     -155.556 
0.000136301      1.01980     -138.180 
6.67795e-05      4.30256     -163.250 
0.000532295      1.04690     -136.548 
9.60098e-05      6.53483     -155.788 
0.000326630      6.71357     -151.144 
0.000216379      4.45942     -156.194 
3.14794e-05      6.22614     -152.447 
0.000117855      1.84043     -137.643 
0.000206596      5.72433     -153.435 
0.000302538      1.01980     -168.690 
0.000406993      5.15798     -156.218 
0.000406598      6.51853     -156.109 
-0.00113839     0.572713      12.0948 
0.000213413      2.32998     -145.491 
0.000445308      6.61683     -165.292 
0.000302961      1.86762     -136.736 
0.000263511      4.06428     -143.807 
0.000301432      2.08806     -159.829 
0.000456564      8.46499     -155.130 
6.42209e-05      1.27562     -131.186 
4.88346e-05      5.93471     -163.153 
4.42984e-05      5.83095     -157.834 
2.33557e-05      4.37100     -150.385 
9.97787e-05      6.74863     -151.308 
2.22324e-05      1.31027     -167.661 
0.000268571     0.252982      18.4349 
3.94193e-05      6.22832     -151.624 
0.000197459      1.01272     -170.910 
0.000360354      12.3006     -158.441 
0.000146501      6.24743     -151.302 
0.000219171      5.04460     -153.638 
0.000231990      5.23695     -147.160 
0.000279764      11.8649     -156.979 
0.000224161      2.00360     -176.566 
0.000266461      3.23011     -172.171 
-0.00105761     0.565685      8.13010 
0.000345857      10.1535     -156.060 
-0.000468993      7.31333     -160.178 
-0.000389951      11.9289     -162.233 
0.000103270      6.73296     -150.846 
5.37317e-05      5.85314     -158.344 
3.23694e-05      2.03686     -160.498 
-0.000508472     0.609262     -23.1986 
0.000128969      6.46381     -161.229 
7.98007e-05      4.08803     -143.354 
0.000189608      6.57815     -165.203 
3.10616e-05      1.98957     -149.826 
0.000109284      3.27341     -147.475 
0.000167658      11.2174     -159.109 
9.44408e-05      9.03416     -152.868 
0.000173850      1.00717     -173.157 
-0.000232928      10.9709     -155.210 
-0.000277965     0.538145      48.0128 
4.35643e-05      5.10137     -155.445 
2.98485e-05      8.75050     -158.831 
1.46294e-05      4.91137     -167.775 
0.000101715      8.69878     -158.981 
-0.000213070      9.99976     -153.640 
5.22707e-05      5.22532     -146.553 
-0.000121777      11.5242     -154.947 
1.36588e-05      3.02972     -137.675 
7.56053e-05      6.26674     -150.981 
6.20473e-05      2.05056     -159.444 
0.000234597     0.329848     -104.036 
3.71582e-05      9.32343     -160.710 
3.89167e-05      2.04157     -177.754 
0.000141470      7.29855     -153.295 
2.54640e-05     0.357771     -153.435 
7.07743e-05      1.78617     -145.954 
5.80549e-05      2.38025     -155.158 
-0.000159804      2.82843     -171.870 
5.78638e-05      2.00160     -177.709 
2.31911e-05      3.95535     -151.621 
-0.000293847      5.34894     -152.860 
0.000102499      11.2548     -159.182 
-8.96075e-05      10.6383     -162.042 
3.36341e-05      6.44596     -146.902 
2.22445e-05      6.57133     -155.931 
1.13773e-05     0.322490     -97.1250 
-0.000153346     0.561427      4.08562 
3.26857e-05      1.00319     -175.426 
2.17209e-05      6.28624     -150.662 
-3.25570e-05      12.5909     -157.590 
3.24497e-05     0.320000     -90.0000 
2.14456e-05      6.56804     -165.541 
-1.07991e-05      10.9346     -155.122 
4.28053e-05     0.341760      159.444 
1.06824e-05      9.33672     -160.478 
1.05858e-05      2.10219     -158.806 
1.06237e-05     0.322490     -82.8750 
-1.05681e-05      4.70472     -153.217 
