! Center RA: 08 54 48.87493,  Dec: +20 06 30.64078 (2000.0)
! Established model.
! Flux (Jy) Radius (mas)  Theta (deg)  Major FWHM (mas)  Axial ratio   Phi (deg) T \
! Freq (Hz)     SpecIndex
   5.94502      0.00000      0.00000 
  0.214986    0.0707107      135.000 
 0.0551887     0.111803     -63.4349 
 0.0490903     0.141421      135.000 
 0.0678569     0.180278     -56.3099 
 0.0399982     0.212132      135.000 
 0.0724726     0.180278      123.690 
  0.101259     0.223607     -63.4349 
 0.0548693     0.250000      126.870 
  0.128660     0.254951     -78.6901 
  0.134571     0.223607      116.565 
 0.0187327     0.304138     -80.5377 
 0.0158214     0.806226     -97.1250 
 0.0750468     0.300000     -90.0000 
0.00531810      1.20934     -82.8750 
 0.0255964      1.20416     -85.2364 
 0.0853345     0.269258      111.801 
 0.0128573     0.801561     -93.5763 
 0.0105502     0.800000     -90.0000 
 0.0219586      1.25100     -87.7094 
 0.0137666     0.801561     -86.4237 
0.00835953     0.806226     -82.8750 
0.00679071      1.25000     -90.0000 
0.00179099      1.18849     -75.3791 
0.00176570     0.824621     -104.036 
 0.0108357      1.30384     -94.3987 
 0.0136121     0.304138     -99.4623 
0.00328010     0.813941     -79.3803 
0.00517782      1.20208     -73.0725 
0.00288618     0.873212     -113.629 
0.00144599     0.824621     -75.9638 
-0.0111416     0.604152      114.444 
0.00303361      1.17047     -70.0169 
0.00543925     0.838153     -72.6460 
0.00130690      1.35831     -96.3402 
0.00967391      3.24230     -116.565 
0.00233633      1.56285     -97.3524 
0.00408972     0.894427     -116.565 
 0.0114698     0.854400     -69.4440 
 0.0115734      2.48847     -112.443 
0.00921197      1.29711     -27.5528 
0.00105996      1.30863     -96.5819 
-0.00489274     0.640312      128.660 
0.00198462      1.61941     -98.8807 
-0.00101859     0.585235      109.983 
-0.0248584     0.806226     -29.7449 
0.00179743      1.83848     -112.380 
0.00900192     0.360555     -33.6901 
-0.00415459     0.750000      143.130 
 0.0240815     0.291548     -59.0362 
-0.000883877     0.570088      105.255 
0.000860463      2.16449     -96.6325 
0.00309264      1.61245     -97.1250 
0.00358603      4.87647     -105.461 
-0.00234882     0.559017      100.305 
0.00411239      3.93859     -123.085 
0.00259713      1.85809     -113.806 
-0.00895228     0.710634      140.711 
0.00442942      2.15928     -95.3145 
 0.0106960      1.25300     -28.6105 
-0.00301147     0.254951     -168.690 
0.000760447     0.917878     -119.358 
 0.0303849     0.291548      120.964 
-0.00266655     0.552268      95.1944 
-0.00948641     0.206155     -165.964 
0.00534441      2.65189     -87.8389 
0.00124993      1.60702     -95.3558 
0.00120026      3.11207     -113.682 
0.000623657      1.21655     -80.5377 
0.000619024      3.33542     -130.135 
0.00114708      3.21403     -95.3558 
-0.00117152     0.610328      124.992 
-0.000583485     0.550000      90.0000 
0.00112546      3.60555     -109.440 
-0.00227027      5.37331     -95.3392 
0.00174317     0.901388     -123.690 
0.00160254      1.60312     -93.5763 
0.00198523      4.89004     -106.026 
0.000991032      3.26497     -130.030 
-0.00105700     0.583095      120.964 
-0.00922727     0.100000     -180.000 
0.000547050     0.316228     -108.435 
-0.000542601     0.552268      84.8056 
-0.00533830     0.710634     -39.2894 
0.000828768      3.00832     -111.448 
-0.00567556     0.500000      90.0000 
0.00270441      3.62250     -110.186 
0.000501524      3.91152     -122.471 
-0.00519092     0.672681      138.013 
-0.00681379      2.47487     -98.1301 
0.00212530      2.99040     -110.556 
0.000481645      1.25100     -92.2906 
0.00216199      1.60078     -91.7899 
0.00156169      3.09919     -79.7778 
0.00441071     0.930054     -126.254 
0.00553421      1.20934     -29.7449 
0.00198786      4.03547     -123.887 
-0.000873558      2.37539     -120.343 
-0.00127490     0.502494      95.7106 
-0.00693370     0.672681     -41.9872 
-0.00178879      1.65605     -28.8866 
0.000959934      3.20975     -94.4672 
0.000428542      1.30000     -112.620 
-0.00855453    0.0500000     -180.000 
-0.00259858      1.64012     -142.431 
0.00185483      2.65047     -88.9191 
0.00151503      2.97321     -109.654 
-0.00217843      2.49650     -122.735 
0.000570167      1.87883     -115.201 
0.000738772      4.25735     -102.894 
0.00175865      1.32004     -114.624 
0.00125197      2.15523     -93.9909 
0.00107381      4.96639     -106.975 
-0.000709785      3.38009     -82.3493 
0.000372188      3.47311     -120.256 
0.00101797      1.60000     -90.0000 
-0.00267735     0.636396      135.000 
0.000684576      3.57561     -110.462 
-0.00156218      1.63248     -27.3499 
-0.000354595      3.38711     -81.5111 
-0.000659169      1.71026     -142.125 
0.000343613      3.49857     -120.964 
0.000982592     0.874643     -59.0362 
-0.000336797      4.99300     -122.735 
0.000335075      1.11018     -35.8377 
0.000654955      2.95677     -108.741 
0.000654910     0.960469     -128.660 
0.000642033     0.751665      93.8141 
0.00158602     0.955249      132.879 
0.000321927      2.65000     -90.0000 
0.000317839      3.52456     -121.661 
0.000316369      3.39006     -142.792 
0.00123330      1.21655     -99.4623 
0.00278620      3.59340     -111.209 
0.000364387      3.62112     -125.446 
0.00124693      1.22577     -101.768 
0.00197746      1.79513     -77.1250 
0.000646063      3.67049     -127.807 
0.000616425      3.57106     -134.433 
0.000531207      3.70135     -128.418 
0.000956236      3.60694     -136.123 
0.000922300      2.92617     -109.983 
0.000922729     0.756637      82.4054 
0.000462136      1.23693     -104.036 
0.00125280      4.68722     -123.690 
0.000647885      2.38799     -109.573 
0.000449674      4.05031     -151.220 
0.00118031      4.19762     -102.381 
0.000432181      5.99333     -115.710 
0.000219773      3.73263     -129.019 
0.00114628      4.91172     -141.613 
0.000593744      1.80693     -75.5792 
0.000399519      4.07063     -152.176 
0.000914701      6.01519     -116.139 
0.000558051     0.764853      78.6901 
0.000190281      3.76431     -129.611 
0.000186881      3.55141     -144.744 
0.000185221      1.25000     -106.260 
0.000349244      3.57106     -135.567 
0.000180146      1.02591     -46.9749 
0.000347223      4.11491     -152.501 
0.000174794      1.26491     -108.435 
0.000339801      1.06066     -45.0000 
0.000168236      1.39014     -52.3058 
-0.000165575      2.65754     -138.814 
