! Center RA: 04 33 11.09553,  Dec: +05 21 15.61921 (2000.0)
! Established model.
! Flux (Jy) Radius (mas)  Theta (deg)  Major FWHM (mas)  Axial ratio   Phi (deg) T \
! Freq (Hz)     SpecIndex
  0.398712    0.0500000      0.00000 
  0.277130      0.00000      0.00000 
  0.238498    0.0707107      45.0000 
 0.0322445     0.269258     -111.801 
  0.164816     0.917878     -119.358 
  0.159973     0.335410     -116.565 
  0.120958     0.111803      63.4349 
 0.0296659     0.874643     -120.964 
 0.0980849     0.380789     -113.199 
 0.0987707     0.158114      71.5651 
 0.0188036     0.961769     -117.897 
 0.0174503      1.02956     -119.055 
 0.0290443     0.427200     -110.556 
 0.0284203      1.20934     -119.745 
 0.0296074     0.782624     -116.565 
 0.0616465      1.32098     -119.476 
 0.0585995      1.78885     -116.565 
 0.0803101     0.206155      75.9638 
 0.0344222      1.83371     -115.866 
 0.0345557      2.30326     -117.121 
 0.0409053     0.850000     -118.072 
 0.0299658      1.74428     -117.300 
0.00996660      2.34787     -116.565 
 0.0331236      2.32594     -115.463 
0.00972662      1.38924     -120.256 
 0.0252235     0.200000      90.0000 
 0.0133353      2.37118     -114.944 
 0.0214559     0.364005     -105.945 
 0.0168198      2.35053     -113.839 
 0.0107922     0.254951      78.6901 
0.00936082      1.27769     -120.579 
0.00491398      1.81246     -114.444 
0.00934861      2.39635     -113.356 
 0.0166809     0.250000      90.0000 
0.00455724      1.70000     -118.072 
0.00445729     0.316228     -108.435 
0.00424664      1.85809     -113.806 
 0.0118706      2.37697     -112.249 
 0.0108405     0.250000     -180.000 
0.00406067     0.460977     -102.529 
0.00688578      1.05475     -121.430 
0.00571929      1.72409     -119.539 
0.00692844      1.92419     -114.567 
0.00345916     0.715891     -114.775 
0.00964155      2.42332     -111.801 
0.00336286      1.34629     -121.329 
0.00617603     0.304138      80.5377 
0.00621774     0.412311     -104.036 
0.00317276      1.87883     -115.201 
0.00400155     0.316228      71.5651 
0.00570528      1.61245     -119.745 
0.00940392      1.96977     -113.962 
0.00524737      2.53476     -112.011 
 0.0130633     0.300000     -180.000 
0.00272397     0.650000     -112.620 
0.00264386      2.01556     -113.385 
0.00259353      2.46982     -111.371 
 0.0171715     0.364005      74.0546 
0.00422351      1.15109     -124.380 
0.00680920     0.403113     -97.1250 
0.00764076      1.63783     -121.264 
0.00443028      2.60000     -112.620 
0.00220731      2.06155     -112.834 
0.00211001      1.26194     -123.690 
0.00373417      2.32433     -108.825 
0.00375080      2.66552     -113.199 
0.00190955     0.832166     -122.735 
0.00335765      2.03593     -114.677 
0.00176414     0.452769     -96.3402 
0.00599354      2.73130     -113.749 
0.00162694      1.68077     -120.379 
0.00160865     0.763217     -121.608 
0.00290868     0.400000     -90.0000 
0.00281282      2.30868     -107.650 
0.00144407     0.350000     -180.000 
0.00140626     0.860233     -125.538 
0.00924982     0.353553      171.870 
0.00128172      1.14018     -127.875 
0.00771199     0.427200      69.4440 
0.00792624      2.79732     -114.274 
0.00332525     0.452769     -83.6598 
0.00119318      2.29401     -106.460 
0.00116165     0.890225     -128.157 
0.00108485      2.35637     -107.281 
0.00106083      1.50083     -119.982 
0.00103663     0.992472     -130.914 
0.00348003      2.34201     -106.113 
0.000946434      1.17154     -129.806 
0.00240560     0.460977     -77.4712 
0.00399536      14.6776     -114.557 
0.00169335     0.919239     -135.000 
0.000862305      1.90394     -113.199 
0.00156305      1.47648     -118.301 
0.00576600      2.86356     -114.775 
0.000744372      1.20416     -131.634 
0.00138045      14.7231     -114.476 
0.00134188     0.955249     -137.121 
0.000690392      1.79513     -102.875 
0.00279430      2.32863     -104.931 
0.00645568     0.447214      63.4349 
0.00119037      1.45344     -116.565 
0.00171117     0.474342     -71.5651 
0.00170266      14.6985     -114.734 
0.000614233      2.03531     -117.824 
0.000597851      1.72627     -100.008 
0.000589431      14.7025     -114.299 
0.000586623     0.992472     -139.086 
0.000567015      14.1779     -111.951 
0.00102392      1.20208     -135.000 
0.000533513      14.1873     -111.501 
0.000530407      2.08387     -120.256 
0.000989267      1.71828     -98.3659 
0.000512930     0.960469     -141.340 
0.000503970      14.1593     -111.764 
0.00181000      14.7195     -114.911 
0.000934148      4.31654     -115.378 
0.000903123      14.3320     -110.205 
0.000464420      4.31567     -116.862 
0.000897466      14.1691     -111.313 
0.00250422     0.492443     -66.0375 
0.00117336      2.31625     -103.736 
0.00453651      1.00000     -143.130 
0.000444204      2.13600     -122.574 
0.00365958      13.6308     -112.426 
0.000435055      3.15357     -115.346 
0.000425444      1.81177     -129.401 
0.00413301      4.85850     -113.663 
0.000772409      4.33849     -117.451 
0.000742739      3.77922     -115.887 
0.000401561      1.40890     -117.474 
0.00108674      14.1408     -111.576 
0.000726643      3.19883     -114.963 
0.000733047     0.403113      172.875 
0.00142131      14.7167     -115.346 
0.000389144      1.71172     -96.7098 
0.000385935      4.28981     -111.181 
0.000734973      14.3148     -110.017 
0.000673951      1.23794     -136.637 
0.00126541      3.75766     -115.201 
0.00292363      10.4216     -115.582 
0.000357345      1.87683     -131.760 
0.000348733      14.7589     -113.352 
0.000649948      4.27200     -110.556 
0.000614057      2.16333     -123.690 
0.00126570      8.29608     -116.102 
0.000331286      14.2678     -110.086 
0.000329741      1.38654     -115.641 
0.000935328      12.0077     -116.458 
0.000597463      1.70660     -95.0425 
0.00118464      4.36177     -118.034 
-0.0179051     0.353553     -8.13010 
0.000311585      1.01242     -147.095 
0.000305482      14.7656     -112.918 
0.000569777      1.91050     -132.879 
0.000811533      14.2977     -109.829 
0.00282659      7.16327     -113.881 
0.000300069      3.24423     -114.590 
0.000549466      2.36485     -103.449 
0.00135994     0.364005      164.055 
0.000566721      14.7381     -115.522 
0.000498295      14.1510     -111.125 
0.000540294      1.36565     -113.749 
0.000281087      2.81824     -115.201 
0.000987786      12.0301     -116.672 
0.00146517      8.27421     -115.791 
0.000505634      14.1225     -111.387 
0.00267226      9.65259     -122.949 
0.000272358      4.30174     -109.699 
0.000528371     0.514782     -60.9454 
0.000737015      11.4753     -115.002 
0.000267335      3.22025     -115.769 
0.000265148      11.6286     -120.203 
0.00227591      14.3126     -117.460 
0.000694547      14.7851     -113.097 
0.00119493      13.6232     -112.895 
0.00194142     0.380789      66.8014 
0.00191256      11.6036     -119.990 
0.000896004      15.3236     -109.440 
0.00254915      10.9659     -114.228 
0.00169860      14.7147     -115.781 
0.000853132      3.37083     -110.854 
0.000249338      14.3357     -117.638 
0.00270320     0.447214     -63.4349 
0.000245572      1.94487     -133.958 
0.000245105      10.6850     -121.608 
0.000242084      2.12191     -124.439 
0.000444748      13.5440     -106.294 
0.00465468     0.316228      161.565 
0.000388006      12.6148     -117.885 
0.000231991      4.28515     -109.069 
0.000638476      1.37568     -109.093 
0.000929310      12.2455     -123.171 
0.00123992      15.5769     -105.642 
0.00177434      13.4960     -106.354 
0.000401484      2.15058     -125.538 
0.000769142     0.992472      49.0856 
0.00158120      4.38549     -118.610 
0.000413738      13.1881     -109.259 
0.000769903      12.5915     -117.684 
0.000736143      10.7016     -121.239 
0.000405919      2.01804     -138.013 
0.000777224      10.3765     -115.701 
0.000204798      2.19146     -124.778 
0.00159981      4.39830     -98.4986 
0.00137189      8.25258     -115.478 
0.000194713      4.31654     -108.225 
0.000446015      2.30489     -102.529 
0.000526788      14.1330     -110.936 
0.000184965      3.26497     -117.350 
0.000347216      8.83247     -116.565 
0.000989745      1.36015     -107.103 
0.00122740      15.2932     -109.679 
0.000474315      13.2046     -109.464 
0.000176583      12.0526     -116.884 
0.000178190     0.471699     -57.9946 
-0.00447388     0.905538     -173.660 
0.000437722      12.4544     -113.168 
0.000173270      1.70074     -91.6847 
0.000324714      9.31075     -114.087 
0.000590830      6.69216     -119.055 
0.000576116      14.8117     -112.843 
0.000168451      2.05548     -138.945 
0.000916701     0.403113      60.2551 
0.000308474      3.92938     -104.744 
0.000162621      12.7986     -128.974 
0.000293219      2.18002     -126.607 
0.000428131      10.4001     -115.333 
0.00222447     0.269258      158.199 
0.00110145      3.35336     -110.056 
0.00133348      2.02299     -140.013 
0.000468484      3.82426     -115.560 
0.000551467      12.7283     -128.941 
0.00328638     0.380789     -66.8014 
0.000150697      6.07824     -105.751 
0.000755271      4.88467     -112.891 
0.000271150      14.1043     -111.198 
0.000513461      8.81022     -116.274 
0.00111017      13.2970     -119.264 
0.000866063      12.4010     -110.042 
0.000143588      3.31210     -118.887 
0.00109025      6.06486     -105.297 
0.00112234      1.02591      46.9749 
0.000382434      14.3789     -110.136 
0.000270462      9.67988     -123.198 
0.000139631      12.6417     -118.592 
0.000265577      11.5786     -119.776 
0.000337238      6.03842     -115.504 
0.000261509      14.3636     -121.477 
0.000237832      15.5635     -105.465 
0.000259282      9.29045     -113.806 
0.000134674      3.80296     -114.880 
0.000132296      10.6758     -121.010 
0.000130902      12.0537     -117.415 
0.00146711     0.970824     -145.491 
0.000681792      18.9146     -111.070 
0.000406305      3.91695     -104.036 
0.000239208      13.1188     -128.967 
0.00121138      18.4143     -106.565 
0.000123131      1.75071     -88.3634 
0.000306231      24.9103     -116.205 
0.000120324      12.6705     -119.296 
0.00129241      8.59956     -105.167 
0.000118489      12.1763     -123.103 
0.000117903      9.91224     -118.634 
0.000226115      14.2896     -117.282 
0.000812291      2.77714     -113.334 
-0.00271026     0.667083      102.995 
0.00104263     0.403113     -60.2551 
0.000114722      3.33654     -119.638 
0.000747362      14.3375     -121.306 
0.000321525      16.1307     -109.558 
0.000315218      21.6012     -107.512 
0.000320583      9.27038     -113.523 
0.000867955      23.7862     -113.278 
0.000109615      12.1001     -117.836 
0.00294584     0.335410      63.4349 
0.000528595      24.9552     -116.154 
0.000288149      12.6580     -128.907 
0.000416400      6.71193     -118.474 
0.000194712      14.0863     -111.008 
0.000106466      4.34885     -107.393 
0.000105393      12.6951     -119.493 
0.000103746      24.1135     -108.998 
0.000637265      14.4605     -110.440 
0.000103076      10.6246     -120.548 
0.000102348      24.3447     -111.823 
0.000101147      14.8311     -113.021 
0.000278618      12.4483     -113.682 
-0.00148752     0.855862     -173.290 
0.000100013      1.75285     -86.7295 
9.98751e-05      9.93240     -118.242 
0.000191983      13.1891     -128.999 
9.95953e-05      12.1235     -118.045 
0.000276688      14.2667     -117.104 
0.000280981      2.21020     -127.648 
-0.00159656      2.59326     -123.996 
0.000270162      21.2514     -108.947 
0.000186241      8.76884     -114.958 
0.000274359      7.15891     -114.775 
0.000438876      24.0973     -108.886 
0.000232231      8.28734     -109.747 
0.000479477      1.34629     -105.068 
9.62118e-05      14.6930     -115.606 
0.000486231      15.8869     -103.468 
0.000183143      25.3553     -113.228 
0.000228487      12.7013     -119.997 
0.000416159      12.3840     -109.825 
0.000236724      14.3962     -110.323 
0.000502659      18.9326     -111.211 
0.000394446      8.23119     -115.164 
0.000615162      16.1475     -109.725 
0.000178805      24.9772     -116.257 
0.000386385      15.2765     -109.502 
0.000176507      17.8091     -111.234 
-0.000281168      11.6431     -111.938 
0.000172420      9.25054     -113.239 
0.000546139      13.9714     -103.241 
8.95305e-05      10.3983     -115.949 
0.00186696      2.71155     -112.782 
8.83356e-05      12.1471     -118.253 
0.000228993      7.20503     -105.290 
8.64202e-05      13.3163     -118.971 
0.000345048      13.1577     -128.830 
0.000223895      21.6163     -107.639 
0.000246436      2.28035     -127.875 
0.000285246      9.85457     -113.313 
0.000158631      10.6330     -121.149 
0.000159494      14.8967     -113.123 
0.000728395      1.99123     -141.116 
0.000156668      13.6119     -112.231 
0.000290087      25.1759     -118.856 
0.000407963      11.0145     -119.358 
0.000291737      25.3356     -113.124 
0.000159430      3.38378     -108.970 
0.000394926      12.1509     -118.780 
-0.000561170      11.6245     -111.710 
0.000519185      11.4965     -115.228 
7.97770e-05      14.2440     -116.925 
0.000225937      24.9840     -109.160 
0.000396079      17.8272     -111.384 
7.87356e-05      12.4742     -113.380 
0.00115227     0.943398     -147.995 
0.000280935      7.18001     -115.137 
7.71508e-05      12.3536     -128.261 
0.000273362      21.1879     -108.863 
0.000211200      14.2661     -116.655 
-0.00125439     0.813941     -169.380 
0.000335038      9.23093     -112.954 
-0.000825701      5.78468     -104.517 
0.000951537      6.05186     -104.840 
7.48597e-05      24.3911     -111.780 
0.000374369      12.4685     -113.893 
0.000138362      3.41321     -121.827 
0.000791366      2.31138     -128.853 
7.44729e-05     0.316228     -71.5651 
0.000380338      24.1446     -108.848 
0.000266540      12.2218     -127.854 
0.00180968     0.335410     -63.4349 
0.000126069      14.0685     -110.818 
0.000134176      14.6697     -115.866 
0.000367196      18.9042     -111.407 
0.000130220      1.70294     -86.6335 
0.000137433      19.0148     -114.880 
-0.00112705      2.56564     -123.071 
6.85500e-05      14.9164     -113.299 
6.86279e-05      8.74786     -114.661 
0.000243781      10.4433     -115.829 
0.000298178      12.3713     -110.339 
0.000347417      24.9676     -109.052 
0.000184702      13.5930     -112.036 
-0.000637667     0.912414     -99.4623 
-0.000454333      10.4232     -109.913 
6.27472e-05      15.8753     -103.292 
6.27320e-05      24.3726     -111.670 
0.000119239      14.9624     -113.224 
0.000172290      13.1386     -114.029 
0.000171879      23.8060     -113.388 
0.000118680      22.2151     -108.639 
0.000166004      19.0359     -115.017 
0.000332971      1.29808     -105.642 
-0.000494394      3.11006     -126.501 
0.000163816      24.6418     -111.672 
5.92561e-05      10.6589     -121.379 
0.000165732      25.1518     -118.756 
0.000647268     0.360555      56.3099 
0.000217848      7.20139     -115.498 
0.000220934      15.8382     -103.510 
-0.000114187      14.4156     -102.011 
0.000111008      14.2215     -116.745 
0.000110437      24.9324     -116.308 
0.000267507     0.335410      153.435 
-0.000638973     0.764853     -168.690 
0.000161526      3.84610     -116.232 
0.000216515      3.42527     -123.690 
0.000108436      4.39118     -97.8533 
0.000159056      9.21154     -112.668 
5.57227e-05      12.1912     -127.669 
5.56646e-05      24.5954     -111.715 
-0.000317840      4.81274     -119.228 
0.000105118      8.25742     -110.191 
5.46842e-05      21.5224     -109.403 
0.000156583      1.00000      53.1301 
5.40846e-05      12.6832     -120.305 
5.41489e-05      8.72711     -114.362 
5.41893e-05      13.5301     -106.091 
-0.000312357     0.657647      98.7462 
5.36778e-05      22.1678     -108.680 
5.35100e-05      6.68824     -118.098 
0.000205635     0.901388     -146.310 
-0.000103250      14.4053     -101.817 
5.25964e-05      25.3218     -114.996 
5.24687e-05      12.6507     -129.226 
5.22014e-05      13.5743     -111.841 
5.22843e-05      9.62549     -122.699 
0.000101960      21.1244     -108.778 
5.16972e-05      15.2127     -109.388 
-0.000153004     0.921954     -102.529 
5.13604e-05      8.75229     -113.929 
5.11962e-05      13.3406     -119.159 
5.09207e-05      23.8601     -115.974 
5.11085e-05      15.0083     -113.148 
5.08798e-05      10.7491     -122.655 
5.09342e-05      7.17025     -105.781 
-5.06245e-05      4.74473     -118.996 
5.01332e-05      24.0812     -108.774 
5.01447e-05      10.4425     -116.442 
5.00571e-05      24.8537     -114.864 
4.96382e-05      12.1303     -127.295 
4.96335e-05      13.2685     -109.596 
4.90809e-05      14.1990     -116.565 
