! Center RA: 22 02 43.29137,  Dec: +42 16 39.97987 (2000.0)
! Established model.
! Flux (Jy) Radius (mas)  Theta (deg)  Major FWHM (mas)  Axial ratio   Phi (deg) T \
! Freq (Hz)     SpecIndex
   1.67349      0.00000      0.00000 
 0.0352714     0.111803     -153.435 
 0.0151855     0.158114     -161.565 
 0.0279174     0.111803      26.5651 
 0.0387349     0.269258     -158.199 
 0.0238275     0.158114      18.4349 
 0.0212829     0.316228     -161.565 
 0.0296911     0.206155      14.0362 
 0.0184203     0.364005     -164.055 
 0.0166245     0.223607      26.5651 
 0.0417810     0.380789     -156.801 
 0.0293956      1.35831     -173.660 
 0.0476673     0.269258      21.8014 
 0.0123093      1.40801     -173.884 
0.00562856      1.40357     -175.914 
0.00533719      1.45774     -174.094 
 0.0380302     0.427200     -159.444 
0.00504386      1.50748     -174.289 
0.00477557      1.25399     -175.426 
0.00457076      1.61245     -172.875 
 0.0416200     0.304138      9.46232 
0.00433203      1.25100     -177.709 
0.00417503      1.66208     -173.089 
0.00399200      1.06888     -169.216 
0.00745136      1.71172     -173.290 
0.00369451      1.30096      177.797 
0.00652593      1.04403     -163.301 
0.00334850      1.65000     -180.000 
0.00328725      2.20907     -174.806 
0.00317923      1.25100      177.709 
 0.0357173     0.316228      18.4349 
0.00577486      2.25887     -174.920 
0.00295471      1.71828     -171.634 
0.00285802      2.35478     -176.348 
0.00531373      1.25399      175.426 
0.00729149      1.05948     -160.710 
0.00264123      1.65076      178.264 
0.00253941      1.67705     -169.695 
0.00485843      2.55196     -177.754 
0.00230677      1.70294      176.634 
0.00433859     0.403113     -150.255 
0.00224749      1.63783     -167.661 
0.00219977      2.65047     -178.919 
0.00218320      1.20416      175.236 
0.00710552      2.21416     -173.517 
0.00392911      2.70000     -180.000 
0.00201754      1.25897      173.157 
0.00363134      1.60078     -165.530 
0.00517267      1.75285      176.730 
0.00366735      1.07703     -158.199 
0.00512910     0.360555     -146.310 
0.00341431      1.20934      172.875 
0.00669784      2.80045      178.977 
0.00615973      1.03078     -157.166 
0.00149374      1.64924     -165.964 
0.00999671      1.21655      170.538 
 0.0114249     0.353553     -135.000 
0.00138440      3.40918     -175.795 
 0.0126470     0.353553      8.13010 
0.00654422      2.17083     -172.057 
0.00642701      2.85175      177.990 
0.00151522      1.56605     -163.301 
0.00857454      3.45579     -176.682 
0.00266239      1.80624      175.236 
0.00124769     0.500000     -180.000 
0.00234155      4.11491     -175.121 
0.00548171      2.85351     -168.887 
0.00206015      2.26385      173.660 
0.00218296      1.61400     -163.811 
0.00390854      4.16083     -175.865 
0.00198054     0.552268      174.806 
0.00105134      3.54154     -166.945 
0.00202960      2.31355      173.797 
0.00566172      3.50464     -165.964 
0.00832512     0.360555     -123.690 
0.00541313      4.73814     -172.725 
0.00498027      1.53379     -160.974 
0.00243707      3.99531     -171.363 
0.00154765      1.05119     -154.654 
0.00324120      1.75642      175.101 
0.00384582     0.559017      169.695 
0.00251926      4.95000     -180.000 
0.00287099      2.36907      172.725 
0.00132162      3.65137      178.431 
0.00471892      5.10906     -168.140 
0.00203889      4.15752     -176.553 
0.00124399      5.41133     -176.292 
0.00201222      2.81469     -167.692 
0.00353769      1.00623     -153.435 
0.00224291      4.00312     -170.655 
0.00170296      4.95025      179.421 
0.00379076      2.15058     -162.408 
0.000575618      2.90388      177.039 
0.00330142      6.95288      178.352 
0.000966664      1.58114     -161.565 
0.00229009      5.50818      176.878 
0.00262530      5.46123     -176.326 
0.000525936      3.70304      177.678 
0.000515367      7.18471     -171.193 
0.000510795      5.89788     -172.694 
0.00416278      3.18198      171.870 
0.00149676      4.51774      174.920 
0.00288686      7.19253     -170.800 
0.00174245      5.90445     -172.213 
0.00152457      1.22577      168.232 
0.00146096      7.12969      174.769 
0.00280882      4.62385     -158.429 
0.00163582      6.84726      170.331 
0.000420678      7.60263      178.493 
0.00269045      8.35464      168.959 
0.00340920      4.72969      166.551 
0.00143179     0.364005      15.9454 
0.000952828      3.75533      176.947 
0.00134432     0.380789     -113.199 
0.00157666      4.46794      174.864 
0.000714839      7.50067     -179.236 
0.00106571      7.81745     -170.056 
0.000375648      6.40410     -169.655 
0.00123534      1.02956     -150.945 
0.000674897      6.77661     -174.920 
0.000929340      7.70584      177.769 
0.000348932      7.17025      164.219 
0.00152479      4.16203     -163.960 
0.000741006      6.78970      170.676 
0.00105268      2.31948      172.569 
0.00150595      4.86647     -175.285 
0.000335281      2.12132     -171.870 
0.000620740      5.56103      176.392 
0.000605297      3.46879     -164.962 
0.000867508      8.50941      177.306 
0.000949975      6.45329     -169.735 
0.000582643      6.31269      176.367 
0.00412348     0.509902      168.690 
0.000729278      7.15682      164.604 
0.00149027      7.86670     -170.119 
-0.00904529    0.0500000     -180.000 
0.000892452      7.45151     -178.847 
0.000650962      7.75790      177.414 
0.00115585      10.4731      168.154 
0.000274293      6.55076     -179.125 
0.000720132      7.75016      166.950 
-0.0290741    0.0500000     -90.0000 
0.000265327      8.75129     -179.018 
0.000852907      8.57088      172.626 
0.000432224      2.70046     -178.939 
0.000832646      6.72681     -174.883 
0.000765284      5.56440      175.878 
0.00141348      8.75229     -178.691 
0.00134536      11.0781      159.111 
0.000234384      8.25015      179.653 
0.000348762      7.12531      175.170 
0.00111362      8.45281     -169.089 
0.000414042      6.36966      175.498 
0.00136909      7.56340      148.517 
0.000921101      14.2100      155.690 
0.000880918      9.13510      174.976 
0.00112230      8.25061      179.306 
0.000403492      5.86195     -171.663 
0.000216251      2.75000     -180.000 
0.000399317      3.80821      176.236 
0.000545890      15.1908      170.910 
0.000203478      1.85000      161.075 
0.000383486      5.28110     -161.222 
0.00146273      14.8967      149.993 
0.000514682      7.05160      150.709 
0.000600806      13.4188      159.269 
0.000346505      7.76160      166.590 
-0.00126644     0.650000      22.6199 
0.00298797     0.452769      173.660 
0.000751321      1.78676      162.072 
0.00115967      5.46191      168.381 
0.00100717      10.6379      147.281 
0.000343314      13.3544      159.394 
0.000590118      7.15140     -170.340 
0.000645737      11.4010     -179.246 
0.000173512      5.82001     -171.104 
0.000608979      12.5822      159.044 
0.000323473      10.4462      157.486 
-0.00586894     0.632456      18.4349 
0.000512354      6.35177     -178.647 
0.00113235      12.5549      144.728 
0.000999739      5.76585     -168.495 
0.000291208      10.4629      168.422 
0.000163837      3.35596     -151.526 
0.000278669      6.53012      161.704 
0.000154760      4.19673     -164.805 
0.00100488      14.3618      171.390 
0.000152449      12.0001     -179.761 
-0.00664977     0.651920     -147.529 
0.000151284      3.37713     -154.573 
0.000150657      5.82795     -170.618 
0.000523832      7.71524      152.605 
0.000149751      4.86261     -175.872 
0.000273999      7.64150     -167.146 
0.000260505      11.2669      168.740 
0.000229077      5.29741     -160.710 
0.000143789      18.3266      162.208 
0.000485880      10.4769      175.895 
0.000270881      7.60148      178.869 
0.000800167      6.30317     -178.182 
0.000142471     0.992472     -139.086 
0.000261680      1.27475      168.690 
0.000139617      10.6664      152.954 
0.000139328      1.01242     -147.095 
0.000912657      5.91354     -161.259 
0.000677458      9.96807     -176.549 
0.000417072      3.28672     -146.793 
0.000264676      10.9772     -173.199 
0.000137100      7.03847     -157.443 
0.000252278      15.1336      171.067 
-0.00205820     0.640312     -141.340 
0.000247804      7.82192      166.319 
0.000330998      4.83735      172.875 
0.000389618     0.955249     -137.121 
0.000636197      18.3742      162.255 
0.000656308      8.40372     -169.024 
0.000250683      4.85927     -176.460 
0.000560936      7.69237      152.935 
 0.0129459     0.320156     -141.340 
0.000497210      10.4654      157.233 
0.000675027      6.42806      174.644 
0.000431527      11.4004     -179.497 
0.000127088      12.0534      154.179 
0.00240326     0.986154     -149.534 
0.000343335      7.06576     -157.973 
0.000518949      12.6468      158.914 
0.000124729      4.83865     -166.251 
0.000501003      15.2500      143.130 
0.000229300      12.1147      165.906 
0.000314922      3.35596     -155.344 
0.000326302      14.7078      157.620 
0.000298453      13.8192      161.434 
0.000326058      4.82701     -166.827 
0.000114694      6.07495     -174.806 
0.000437477      12.0753      153.965 
0.000113743      11.0136      159.261 
-0.000314802      8.93588      148.266 
0.000259110      10.9056      178.161 
0.000210902      8.94930      161.768 
0.000554302      10.6892      152.716 
0.000110481      6.48787      173.806 
0.000756415      12.3009      142.431 
0.000569567      7.65278     -166.781 
0.000109811      6.21691      168.871 
-0.000278530      13.1529      135.616 
0.000438486      15.5989      151.052 
0.000107998      16.2980      163.789 
0.000300911      13.1913      160.054 
-0.00376864     0.618466      14.0362 
0.00168878     0.400000     -180.000 
-0.00150060     0.670820     -153.435 
0.000546141      22.5480      159.355 
0.000357513      6.50173     -178.678 
0.000107283      9.13961      174.664 
0.000509587      13.5148      167.609 
0.000833653      1.71026      164.745 
0.000517925      24.1932      156.879 
0.000197448      1.85607     -175.365 
0.000470538      21.3959      164.827 
0.000102328     0.460977      167.471 
0.000185848      6.12046     -175.314 
0.000935808      6.20746      169.324 
0.000100660      9.19416      174.382 
0.000453747      17.1559      171.114 
0.000192251      6.84251     -153.060 
-0.000356165      13.5515      152.773 
0.000250654      11.8152      177.089 
0.000265508      9.96519     -176.836 
0.000583372      4.77834     -166.691 
0.000180118      10.8840      150.255 
0.000180846      4.85644     -177.049 
9.60110e-05      11.0211     -173.488 
0.000412282      9.32121      172.913 
0.000163866      5.61805      175.406 
0.000237007      1.26590      170.910 
0.000440698      11.5010      179.253 
0.000341865      5.79590     -169.563 
9.36954e-05      17.8366      160.854 
0.000474712      14.7269      157.440 
-9.25328e-05      4.26175     -157.949 
0.000177179      2.25887      174.920 
0.000167814      12.1632      165.964 
-0.000239248      20.3746      149.470 
-0.00408696     0.680074     -162.897 
8.99500e-05      8.87088      162.280 
-0.000711082      4.28077     -157.329 
-0.000311336      8.89340      148.097 
8.81042e-05      4.18390     -165.466 
8.79341e-05      7.23205      163.946 
0.000848751     0.403113      172.875 
0.000166023      8.24621     -157.166 
-0.000440091      7.53824     -171.225 
0.000152089      3.91312     -153.435 
0.000149188      24.2129      156.770 
0.000155956      6.36180      156.861 
0.000227820      8.30241      178.620 
0.000360590      6.75592     -151.728 
-0.000503360      14.9413      165.266 
0.000157149      12.1624      172.203 
8.32230e-05      8.74543      162.705 
0.000219180      13.1743      160.258 
-0.000352492      13.3226      140.635 
0.000141573      3.38120     -156.468 
0.000775318      3.91472     -155.072 
-0.00103282      6.66202      176.558 
-0.000223778      21.1469      156.890 
0.000480432      5.81378      153.435 
-0.00118502     0.636396     -135.000 
0.000215241      8.75357     -178.363 
0.000628978      2.30868      175.030 
7.97552e-05      21.6945      152.254 
0.000531196     0.955249     -132.879 
0.000137046      11.0386      146.454 
0.000285522      13.9284      164.168 
0.000145821      2.84429     -169.875 
-0.000143568      9.90669     -171.584 
0.000215911      7.12127      175.570 
-0.00106461      2.14767      167.905 
0.000145711      1.90263     -176.987 
-0.000470566      2.43772     -154.486 
0.000271799      17.0988      171.254 
-0.000668758      4.25441     -156.448 
0.000132673      4.94292      172.444 
0.000139192      14.5212      145.380 
7.54587e-05      15.6903      160.064 
0.000141646      12.7880      150.227 
7.49088e-05      17.7625      158.708 
0.000196624      8.57744      172.295 
-0.00212010     0.608276      9.46232 
0.000206285      5.38075      142.172 
0.000136862      5.86622     -161.102 
7.30822e-05      2.70740     -175.764 
0.000256749      8.25424     -157.941 
7.28148e-05      10.6607      143.775 
0.000196912      8.93378      162.072 
0.000204787      9.04834      150.177 
7.20130e-05      13.5012      158.947 
0.000211665     0.961769     -152.103 
0.000133866      17.6207      152.999 
7.15545e-05      22.9055      159.825 
0.000268055      4.59619     -157.620 
0.00109172     0.335410     -153.435 
-0.000386314      11.5879      158.749 
0.000128419      9.25972      173.489 
0.000133369      19.4780      152.646 
0.000194994      2.18403     -164.055 
7.02167e-05      13.8825      161.304 
0.00101775     0.984886     -156.038 
7.00154e-05      11.2767      168.491 
-0.000323159      12.3119      157.810 
6.98498e-05      4.46010      176.143 
0.000129558      14.8783      172.469 
-0.000193694      3.85292     -177.769 
0.000318673      4.72969     -166.551 
6.88387e-05      21.6502      152.192 
0.000187867      5.83631     -170.134 
0.000190734      18.5244      163.375 
0.000127694      16.0110      152.875 
0.000186884      22.8585      159.781 
-0.000128462      8.96228      147.995 
6.56336e-05      17.9003      160.755 
-0.000434986      1.30863     -136.548 
0.000124334      20.1674      166.377 
0.000124015      17.7807      158.558 
6.49513e-05      14.9345      172.304 
6.39960e-05      13.9622      160.981 
6.36519e-05      11.0156     -173.746 
-0.000124258      10.0629      152.798 
-6.35650e-05      12.3771      157.683 
-6.30217e-05      12.7598     -177.754 
6.31413e-05      6.93488      145.279 
-0.000119802      13.6188      152.682 
0.000120339      13.9915      150.687 
-0.000180885      4.41814     -174.806 
0.000121131      4.90408     -177.663 
0.000119714      20.7573      159.557 
-0.000120510      3.00167     -150.018 
6.17961e-05      2.83593     -170.870 
6.08013e-05      8.25136      178.958 
6.05920e-05      12.2308      142.474 
-5.98559e-05      10.7053      162.327 
0.000118601      7.00874      177.138 
-5.97192e-05      21.2126      156.819 
-0.000175571      7.91991     -158.131 
5.94398e-05      12.7198      150.311 
5.93524e-05      15.6263      160.174 
-0.000116653      12.0503      174.763 
5.93791e-05      12.1558      172.437 
5.95589e-05      1.77200      163.610 
-5.86684e-05      4.46374     -175.503 
5.81705e-05      17.9368      154.578 
5.79586e-05      21.6270      152.309 
5.79920e-05      9.57549     -172.801 
5.80070e-05      11.3257      168.541 
5.78351e-05      19.5454      152.583 
-5.79101e-05      9.73974      164.822 
5.76183e-05      7.67219     -159.794 
