! Center RA: 12 30 49.42338,  Dec: +12 23 28.04366 (2000.0)
! Established model.
! Flux (Jy) Radius (mas)  Theta (deg)  Major FWHM (mas)  Axial ratio   Phi (deg) T \
! Freq (Hz)     SpecIndex
  0.786736      0.00000      0.00000 
 0.0100636    0.0125000      90.0000 
0.000973579    0.0515388      75.9638 
0.000472395    0.0637377      78.6901 
0.000467749    0.0125000     -90.0000 
0.000463107    0.0760345      80.5377 
0.000458593    0.0375000     -90.0000 
0.000454119    0.0883883      81.8699 
0.000449959     0.138067     -95.1944 
0.000446530     0.201556      82.8750 
0.000442740     0.162980     -94.3987 
0.000439568     0.226385      83.6598 
0.000436228     0.226385     -96.3402 
0.000433646     0.277545      82.2348 
0.000430701     0.238812     -96.0090 
0.000428272     0.302335      82.8750 
0.000425623     0.263688     -95.4403 
0.000423316     0.314742      83.1572 
0.000420833     0.276134     -95.1944 
0.000418643     0.327156      83.4181 
0.000416310     0.288585     -94.9697 
0.000414212     0.339577      83.6598 
0.000412032     0.301040     -94.7636 
0.000816032     0.352003      83.8845 
0.000407975     0.313498     -94.5739 
0.000804604     0.339577     -96.3402 
0.000402334     0.364435      84.0939 
0.000794215     0.390712      82.6476 
0.000790765     0.352003     -96.1155 
0.000781039     0.403113      82.8750 
0.000777798     0.364435     -95.9061 
0.000768568     0.415519      83.0888 
0.000765517     0.376870     -95.7106 
0.00113076     0.427931      83.2902 
0.00112644     0.389310     -95.5275 
0.00146876     0.440348      83.4802 
0.00146336     0.401754     -95.3558 
0.00142685     0.452769      83.6598 
0.00142176     0.414201     -95.1944 
0.00172810     0.465195      83.8298 
0.00172208     0.426651     -95.0425 
0.00199701     0.477624      83.9910 
0.00231410     0.439104     -94.8991 
0.00284847     0.490057      84.1440 
0.00282016     0.451560     -94.7636 
0.00410753     0.502494      84.2894 
0.00434379     0.464018     -94.6355 
0.00271194     0.514933      84.4278 
0.00318152     0.476478     -94.5140 
0.00327351     0.513870      85.8151 
0.00222994     0.475657     -93.0128 
0.00890221     0.526338      85.9144 
 0.0101199     0.488141     -92.9357 
0.00347412     0.538807      86.0091 
0.00205439     0.500625     -92.8624 
 0.0114458     0.500156     -91.4321 
 0.0123003     0.538081      87.3370 
0.00236955     0.512500     -90.0000 
0.00185379     0.537645      88.6678 
-0.000529492     0.274431      149.931 
0.000606898     0.500000     -90.0000 
0.000805071     0.525149      88.6361 
-0.000438547     0.385073     -144.246 
0.000294657     0.487660     -91.4688 
-0.000216172     0.280903      147.724 
0.000431922     0.475164     -91.5074 
