! Center RA: 12 56 11.16657,  Dec: -05 47 21.52481 (2000.0)
! Established model.
! Flux (Jy) Radius (mas)  Theta (deg)  Major FWHM (mas)  Axial ratio   Phi (deg) T \
! Freq (Hz)     SpecIndex
   4.64627      0.00000      0.00000 
  0.684138    0.0125000      0.00000 
  0.355877    0.0125000     -90.0000 
 0.0305309    0.0176777      45.0000 
 0.0146590    0.0250000     -90.0000 
0.00474119    0.0838525      63.4349 
0.00470207     0.158114     -108.435 
0.00466323     0.151038      65.5560 
0.00462918     0.185826     -109.654 
0.00913594     0.218303      66.3706 
0.00456977     0.241415     -111.251 
0.00897939     0.269258     -111.801 
0.00449036     0.257694      67.1663 
0.00884252     0.285591      66.8014 
0.00880077     0.297122     -112.249 
 0.0172043     0.313498      66.5014 
 0.0129091     0.325000     -112.620 
 0.0125891     0.352890     -112.932 
 0.0166431     0.341413      66.2505 
 0.0167370     0.369332     -113.962 
 0.0121454     0.352890      67.0679 
 0.0763997     0.380789     -113.199 
 0.0454134     0.369332      66.0375 
0.00780097     0.397256     -114.146 
 0.0228696      1.02042     -149.036 
 0.0361549      1.02485     -149.995 
 0.0421790     0.392309     -112.479 
  0.101011     0.364435      67.8337 
 0.0239151      1.03569     -150.341 
 0.0377006     0.376040     -111.448 
0.00663245      1.02956     -150.945 
 0.0381336      1.04051     -151.280 
 0.0773763     0.387702     -110.772 
 0.0353740      1.04560     -152.210 
 0.0659263     0.399414     -110.136 
 0.0355116      1.05097     -153.130 
 0.0304044      1.05660     -154.041 
 0.0131228     0.383447     -109.026 
 0.0687464     0.395285     -108.435 
 0.0323410      1.06250     -154.942 
 0.0685508     0.359905      69.6769 
 0.0319177      1.06866     -155.833 
 0.0948594     0.407162     -107.879 
0.00389248      1.07507     -156.714 
 0.0183368      1.07019     -157.329 
 0.0229539      1.07703     -158.199 
0.00186965      1.08412     -159.057 
 0.0445833      1.15285     -170.640 
0.00900129      3.46180     -140.274 
 0.0516990     0.391512     -106.699 
 0.0114684      3.45220     -140.141 
0.00338006      1.06213     -153.435 
0.00328600      1.05668     -152.526 
0.00160771      1.05149     -151.607 
0.00159701      1.04657     -150.680 
0.00156917      1.05275     -150.086 
 0.0728523     0.355756      71.5651 
0.00308160      1.04829     -149.153 
 0.0301269     0.379556     -107.241 
 0.0102628      3.44261     -140.008 
0.00300336      1.04411     -148.213 
0.00293564      1.04021     -147.265 
 0.0453354      1.16519     -170.740 
0.00286311      1.03660     -146.310 
0.00418078      1.03327     -145.349 
 0.0921833     0.364005     -105.945 
0.00792603      3.43304     -139.874 
0.00271366      1.03025     -144.382 
0.00264603      1.02751     -143.409 
0.00467668     0.376040     -105.422 
0.00514095      1.02508     -142.431 
0.00372079      1.02294     -141.450 
0.00833425      3.42349     -139.739 
0.00360897      1.02111     -140.464 
0.00577378      1.01957     -139.475 
 0.0447529      1.17752     -170.838 
0.00112400      1.02774     -138.945 
0.00946358      3.41397     -139.603 
0.00330128      1.01835     -138.483 
0.00321160      1.02668     -137.961 
0.00208624      1.01743     -137.490 
 0.0549506     0.348658     -104.534 
0.00505647      1.02591     -136.975 
0.00483551      1.02546     -135.988 
0.00380888      3.40445     -139.467 
0.00462408      1.03418     -135.490 
0.00531285      3.39634     -139.627 
0.00179411      1.02530     -135.000 
0.00434856      1.03418     -134.510 
0.00335127      1.04313     -134.029 
0.00409418      3.38683     -139.490 
0.00481728      1.05216     -133.556 
-0.00240953      2.89158     -146.997 
0.00307246      3.37872     -139.652 
0.00232100      1.06125     -133.091 
-0.00449945      2.88111     -146.861 
0.00301033      1.07892     -133.122 
0.00219641      3.36921     -139.514 
0.00219467      1.08807     -132.672 
0.00212766      1.09730     -132.230 
0.00345503      3.36111     -139.676 
-0.00344764      2.87065     -146.725 
 0.0117555     0.352003      73.4956 
0.00141385      1.11496     -132.274 
0.000698469      1.47017     -127.747 
0.00274963      1.48008     -127.451 
-0.0363741     0.468542      133.919 
0.00134328      1.08894     -131.743 
0.00267434      1.49002     -127.158 
0.00453221     0.367636     -107.819 
-0.000658348      2.48697     -149.826 
0.000657760      1.07129     -131.689 
0.000654812      1.50753     -127.250 
-0.00619291      2.49327     -149.578 
0.00129284      1.06199     -132.138 
0.00190084      3.35303     -139.839 
0.00253769      1.51750     -126.964 
0.00128351      1.50000     -126.870 
-0.00287599      2.86021     -146.588 
0.00249321      1.04433     -132.089 
0.00241498      1.52751     -126.682 
0.00181227      1.51002     -126.585 
 0.0113545     0.348658      75.4655 
0.00234989      1.00902     -131.987 
0.00175287      3.35457     -140.140 
0.000597326      1.02668     -132.039 
0.00175331      1.52007     -126.304 
-0.00608352      2.49962     -149.331 
0.00114728      1.53755     -126.404 
0.00112924     0.991369     -131.934 
0.00388080      1.53017     -126.027 
0.00271400     0.973717     -131.878 
0.00162003      3.35620     -140.440 
0.00473553      1.54029     -125.754 
0.00944427     0.345733      77.4712 
0.00154420     0.956066     -131.820 
-0.00897048      2.50602     -149.085 
0.00100648     0.947777     -131.257 
0.00149481      3.35792     -140.741 
0.00151168      1.55045     -125.484 
0.000506691      1.53302     -125.375 
0.00147982     0.938416     -131.760 
0.00529278      1.54323     -125.106 
0.000479659     0.930138     -131.186 
0.00231522     0.920767     -131.698 
0.000939005      3.35973     -141.041 
0.00320678      1.55347     -124.841 
0.00919570     0.343238      79.5085 
0.00175212     0.903120     -131.634 
0.00133130      3.36164     -141.340 
0.00349615      1.54637     -124.461 
0.00175621     0.385884     -114.905 
0.000443619     0.912500     -131.112 
-0.00933244      2.51247     -148.841 
0.000845173     0.894864     -131.035 
0.00412967     0.357946     -114.775 
 0.0152244      1.55669     -124.200 
0.00124885      3.36364     -141.639 
0.00243579     0.885473     -131.566 
0.00243816     0.374583     -115.710 
0.00846986     0.341184      81.5730 
0.00117659      3.36573     -141.938 
0.000399426     0.877229     -130.956 
0.00341804     0.363361     -116.565 
0.00337821      1.56704     -123.944 
0.00153842     0.346636     -115.641 
0.00616562     0.867828     -131.496 
0.00110014      3.36791     -142.237 
0.00217984      3.49397     -152.977 
0.00533561     0.335410     -116.565 
0.00814579     0.339577      83.6598 
0.00653000      3.48831     -153.159 
0.00518126     0.850184     -131.424 
0.00131607      3.36027     -142.405 
0.00461650     0.324278     -117.553 
0.000334713     0.307459     -116.565 
0.00313912      1.56375     -124.579 
0.00340479     0.296332     -117.646 
0.00310317     0.338425      85.7636 
0.000918742     0.832541     -131.348 
0.000309686      3.36259     -142.704 
0.000607948      1.57088     -124.955 
