! Center RA: 12 29 06.69973,  Dec: +02 03 08.59828 (2000.0)
! Established model.
! Flux (Jy) Radius (mas)  Theta (deg)  Major FWHM (mas)  Axial ratio   Phi (deg) T \
! Freq (Hz)     SpecIndex
   1.49253    0.0125000      0.00000 
  0.338952      0.00000      0.00000 
  0.435259    0.0125000     -90.0000 
 0.0462057    0.0176777      45.0000 
0.00417265    0.0395285     -108.435 
0.00413414     0.117925      57.9946 
0.00410458     0.195656     -116.565 
0.00407297     0.173656      59.7436 
0.00404781     0.240442     -117.897 
0.00402174     0.229469      60.6422 
0.00399993     0.268386     -117.759 
0.00397647     0.246539      59.5345 
0.00395743     0.285318     -118.811 
0.00783116     0.274431      59.9314 
0.00391846     0.302335     -119.745 
 0.0552146     0.330246     -119.476 
 0.0114806     0.302335      60.2551 
 0.0565130     0.347311     -120.256 
 0.0111941     0.319423      59.4208 
 0.0192134     0.375208     -119.982 
0.00367161     0.330246      60.5241 
 0.0277245     0.392309     -120.651 
 0.0352001     0.347311      59.7436 
 0.0280959     0.409458     -121.264 
  0.154229     0.364434      59.0362 
 0.0792394     0.426651     -121.827 
0.00288334     0.375208      60.0184 
 0.0837216     0.443882     -122.347 
 0.0273242     0.381608      58.3925 
0.00211525     0.928456     -136.637 
0.00416345     0.937583     -137.161 
0.00204975     0.955249     -137.121 
0.00603749     0.964446     -137.626 
 0.0171012     0.358164     -119.249 
0.00394116     0.973717     -138.122 
 0.0150336     0.392309      59.3493 
0.00769226     0.991369     -138.066 
 0.0406536     0.341184     -118.443 
 0.0111100      1.00070     -138.545 
 -0.111025     0.530330      135.000 
0.00535801      1.01835     -138.483 
  0.103138     0.324278     -117.553 
0.00685058     0.403113      60.2551 
 0.0103492      1.02774     -138.945 
0.00342912     0.420193      59.6209 
 0.0130987      1.03720     -139.399 
0.00473270     0.431024      60.4612 
0.00315087     0.414012      61.1134 
0.00315537      1.05483     -139.325 
0.00464669      1.04672     -139.844 
 0.0147753      1.06434     -139.764 
0.00150519     0.307459     -116.565 
0.00442970     0.425000      61.9275 
0.00143397     0.441942      61.2602 
 0.0176707      1.07391     -140.194 
0.00686331     0.452942      62.0205 
0.00512576     0.464018      62.7447 
 0.0184680      1.08354     -140.618 
0.00484122     0.475164      63.4349 
0.00457221     0.486377      64.0935 
 0.0177686      1.09323     -141.033 
0.00327804     0.313249     -118.610 
0.00323046     0.481047      65.4328 
0.00108461     0.497651      64.7223 
 0.0182054      1.10298     -141.442 
0.00407953     0.492443      66.0375 
0.00385924     0.503891      66.6148 
0.00454389     0.515388      67.1663 
 0.0198037      1.11278     -141.843 
0.00258543     0.526931      67.6938 
0.00329339     0.522315      68.9625 
 0.0141148      1.12264     -142.237 
0.00313000     0.534000      69.4440 
0.00150319      1.13033     -141.736 
0.00298256     0.545722      69.9048 
0.00283750     0.541555      71.1468 
 0.0171870      1.14018     -142.125 
0.00271234     0.553399      71.5651 
0.00258857     0.565271      71.9657 
0.00247957     0.561527      73.1786 
0.00295393     0.573503      73.5400 
0.00393934      1.15007     -142.507 
0.00170398      1.15772     -142.017 
0.000571416     0.570088      74.7449 
0.00112574     0.585502      73.8866 
0.00325865     0.582157      75.0686 
0.000552850      1.54884     -132.056 
0.000544917      1.56649     -132.089 
0.00160536      1.14250     -143.005 
0.00209338      1.57579     -131.785 
0.00210048      1.12500     -143.130 
0.00258811     0.594243      75.3791 
0.00253132      1.11754     -143.643 
0.00100172      1.58514     -131.483 
0.000504874     0.579062      76.2637 
0.00341522     0.591212      76.5514 
0.00146882      1.11018     -144.162 
0.00145388      1.59452     -131.186 
 0.0252877     0.364434     -120.964 
0.000487843      1.12034     -144.537 
0.00143214      1.11313     -145.061 
0.000471794      1.60395     -130.892 
0.000472015     0.603376      76.8274 
0.00277404      1.10602     -145.592 
0.00139050     0.588430      77.7352 
0.000928369      1.58632     -130.846 
0.00268048      1.59580     -130.553 
0.00222606     0.600651      77.9885 
0.000455579      1.11587     -167.053 
 0.0404851      1.12805     -167.196 
0.00132437      1.10291     -144.689 
0.000434998      1.60531     -130.263 
0.00254770      1.58770     -130.210 
0.00127681      1.10007     -143.781 
0.00209528     0.585902      78.9298 
-0.000421388     0.505748     -50.0131 
0.00122848      1.09751     -142.869 
-0.00160147     0.496236     -49.0856 
0.00123719      1.59726     -129.920 
0.00121290      1.57966     -129.864 
0.00273212     0.583631      80.1342 
0.000399761      1.10510     -142.352 
0.00157944      1.58927     -129.575 
0.000783284      1.09523     -141.953 
0.00192123      1.57167     -129.514 
-0.00148020     0.486859     -48.1221 
0.00222298      1.58134     -129.226 
0.00216088     0.581620      81.3475 
0.000366318      1.10114     -140.528 
0.000723156      1.56375     -129.161 
0.000360247     0.569265      81.1582 
0.00106597      1.09152     -140.110 
0.00314481      1.57346     -128.873 
 0.0121158     0.353774     -122.005 
-0.00104121     0.477624     -47.1211 
0.000347723      1.08195     -139.686 
0.00265167     0.567478      82.4054 
0.00101570      1.09008     -139.185 
0.00264449      1.56565     -128.517 
-0.00130297     0.468542     -46.0809 
0.00129834      1.08065     -138.752 
0.000330374      1.58321     -128.589 
0.00189093      1.57545     -128.234 
0.00271996     0.565962      83.6598 
0.000315669      1.07129     -138.311 
0.000925918      1.55789     -128.157 
-0.00121580     0.459619     -45.0000 
0.000921617      1.07964     -137.816 
0.000904336      1.98061     -133.466 
0.000303834      1.56774     -127.875 
0.000900616      1.55020     -127.794 
0.000300764      1.08807     -137.328 
0.000592547      1.07892     -136.878 
0.000885562      1.53267     -127.711 
0.000588167      1.98923     -133.727 
-0.00115019     0.450867     -43.8767 
0.000583036      1.51513     -127.626 
0.00170879      2.00690     -133.738 
0.000577763      1.08750     -136.397 
0.000288767      1.52505     -127.340 
0.00142454      1.50753     -127.250 
0.00222356     0.343238     -123.111 
0.00219845     0.552268      84.8056 
0.00111939      1.49002     -127.158 
0.000282122      1.07848     -135.939 
-0.00137132     0.442295     -42.7094 
0.000552659      2.01556     -133.995 
0.000549119      1.08721     -135.466 
0.00108708     0.325960     -122.471 
0.00543675      1.14024     -167.335 
0.00136744      1.48250     -126.773 
0.000274552      1.47251     -127.064 
0.00108402      2.02458     -133.749 
0.00160266      1.46501     -126.674 
0.00260291      2.03324     -134.004 
-0.00208114     0.433914     -41.4965 
0.00305278     0.315486     -123.690 
0.00183086      1.44752     -126.573 
0.000261713     0.539821      84.6855 
0.00175056     0.538807      86.0091 
0.000257819      1.08721     -134.534 
0.000770087      1.45758     -126.280 
0.00226371      1.44011     -126.174 
0.000757567      2.04225     -133.760 
-0.00172588     0.425735     -40.2364 
0.00544252      2.05091     -134.012 
0.000247851      1.42264     -126.064 
0.000246438      1.45022     -125.882 
0.00290232      1.43276     -125.770 
0.00188801     0.287772     -124.380 
0.000241642     0.305164     -124.992 
-0.00211095     0.417769     -38.9275 
0.00116976     0.526338      85.9144 
0.000237189      1.44292     -125.480 
0.00210031      1.42549     -125.362 
0.00204494      1.43571     -125.074 
0.00178399     0.277545     -125.838 
-0.00178116     0.410030     -37.5686 
0.00110672     0.513109      87.2073 
0.00367570      2.05992     -133.771 
0.00305755      1.42856     -124.663 
0.000222509      1.41830     -124.951 
-0.00587943     0.402531     -36.1582 
0.00127610     0.250000     -126.870 
0.00107035      1.43886     -124.380 
0.00105284     0.500625      87.1376 
-0.00479296      2.52503     -142.846 
0.00104494      1.41117     -124.535 
0.00103320      1.40089     -124.824 
0.00203369     0.240117     -128.660 
-0.00277209      2.53260     -142.621 
0.000617872      2.06859     -134.021 
0.000409565      1.39065     -125.119 
0.000804615     0.475164      88.4926 
0.00419061      1.36302     -125.293 
0.00217363      2.07760     -133.781 
0.000203427      1.38044     -125.417 
0.00100216      1.37324     -124.992 
0.00116686      1.07892     -133.122 
0.00154777     0.230489     -130.601 
0.000580048     0.212867     -130.236 
0.000952888     0.462669      88.4518 
0.000563547      1.35283     -125.599 
0.000933520      1.09659     -133.152 
-0.000938402     0.500312      12.9946 
-0.00202308     0.395285     -34.6952 
0.00202245     0.203485     -132.510 
0.00110648      1.10574     -132.709 
0.00165941      2.09527     -133.791 
0.000364916     0.437500      90.0000 
