! Center RA: 17 33 02.70579,  Dec: -13 04 49.54840 (2000.0)
! Established model.
! Flux (Jy) Radius (mas)  Theta (deg)  Major FWHM (mas)  Axial ratio   Phi (deg) T \
! Freq (Hz)     SpecIndex
  0.982408      0.00000      0.00000 
 0.0590611    0.0125000     -90.0000 
0.00319322    0.0125000     -180.000 
 0.0887890    0.0176777     -135.000 
0.00132283      1.44795      27.2287 
0.00260414    0.0125000      90.0000 
0.00130271      1.44227      26.7871 
0.00128333      1.42549      26.5651 
0.00252774    0.0250000      90.0000 
0.00126485      1.41995      26.1139 
0.00124679      1.41449      25.6593 
0.00123730    0.0515388      75.9638 
0.00244375      1.40912      25.2011 
0.00122098    0.0637377      78.6901 
0.00239534    0.0760345      80.5377 
0.00119871      1.38727      24.4867 
0.00235445      1.38214      24.0151 
0.00117627    0.0883883      81.8699 
0.00231301     0.115244      77.4712 
0.00115762      1.37710      23.5400 
0.00114528      1.37216      23.0615 
0.00226492     0.127475      78.6901 
0.00113357      1.36731      22.5796 
0.00112228      1.35098      22.2936 
0.00111604     0.139754      79.6952 
0.00221345      1.34629      21.8014 
0.00110581     0.152069      80.5377 
0.00218279     0.166771      77.0054 
0.00109237      1.34170      21.3058 
0.00215772      1.33721      20.8068 
0.00214734     0.178973      77.9052 
0.00106604      1.33282      20.3045 
0.00211443     0.191213      78.6901 
0.00210797      1.32853      19.7989 
0.00208376     0.203485      79.3803 
0.00207761      1.32435      19.2900 
0.00307199     0.215783      79.9920 
0.00306341      1.32027      18.7780 
0.00201466     0.230489      77.4712 
0.00100785      1.31630      18.2629 
0.00100152      1.30444      18.4349 
0.00395583     0.242706      78.1113 
0.00394604      1.30054      17.9125 
0.00481580     0.254951      78.6901 
0.00289942      1.29675      17.3870 
0.00378994      1.29307      16.8584 
0.00560415     0.267219      79.2157 
0.00462178      1.28950      16.3269 
0.00631398     0.279508      79.6952 
0.00626693      1.28604      15.7924 
0.00693906     0.291815      80.1342 
0.00688872      1.28270      15.2551 
0.00252959     0.294215      77.7352 
0.00982273      1.27947      14.7151 
 0.0159245     0.306441      78.2317 
 0.0158338      1.27635      14.1723 
 0.0335320     0.318689      78.6901 
 0.0417136      1.27334      13.6270 
0.00854573     0.330955      79.1145 
 0.0333169     0.333542      77.0054 
 0.0158113     0.321374      76.5043 
0.00650481      1.27046      13.0791 
0.00518181      1.26423      14.3110 
 0.0230758      1.26120      13.7608 
0.00679606      1.42850     -4.01418 
0.00350987      1.25860      15.5546 
0.00165582      1.25530      15.0049 
0.00327048      1.25356      16.8087 
0.00383990     0.324519      74.3578 
0.000303806      1.25000      16.2602 
 0.0103636     0.312500      73.7398 
0.00142364      1.25723      17.3540 
0.00218749      1.24912      18.0723 
0.00183243      1.25306      18.6157 
0.00199889      1.24530      19.3443 
0.00168162      1.24950      19.8852 
 0.0165617      1.44097     -3.97938 
0.00250024     0.300520      73.0725 
0.00250111      1.24210      20.6235 
0.00108856     0.316228      71.5651 
0.00108374      1.24656      21.1613 
0.00688327     0.304395      70.8210 
0.000425128      1.23491      21.3706 
0.00204798      1.23952      21.9087 
0.000398209      1.24424      22.4428 
0.00134579      1.23269      22.6646 
0.00166135      1.23756      23.1986 
0.00357151     0.308727      68.6294 
0.00173295      1.23111      23.9625 
0.000177849      1.22608      23.4287 
0.000501367      1.23624      24.4919 
0.00113688      1.22487      24.7343 
0.00292570     0.297122      67.7510 
0.00124390      1.23015      25.2631 
0.000599164      1.21886      25.5139 
0.00144747      1.22430      26.0418 
0.000145985     0.313498      66.5014 
0.00367948     0.302076      65.5560 
0.000417823      1.21308      26.3010 
0.00121575      1.21867      26.8279 
0.000521008      1.22436      27.3499 
0.00113119      1.21327      27.6211 
0.00160109     0.307459      63.4349 
-0.00345703     0.477297     -45.0000 
0.00201753     0.386086     -119.055 
0.000709281      1.21912      28.1416 
0.00149873     0.296332      62.3540 
0.000672093      1.22506      28.6571 
0.00119220     0.302335      60.2551 
0.000741902      1.23111      29.1676 
0.00348379      1.45344     -3.94519 
0.00122719     0.291548      59.0362 
0.000699659      1.23725      29.6731 
0.00136931     0.380173     -117.408 
0.00115570     0.298172      56.9761 
0.000659781      1.24348      30.1735 
0.00100079     0.287772      55.6197 
9.29906e-05      1.26058      30.3791 
0.000446173      1.24981      30.6689 
0.00103261     0.295011      53.6156 
0.000345417      1.26695      30.8668 
8.47657e-05      1.27341      31.3496 
8.38957e-05      1.25623      31.1593 
