! Center RA: 12 29 06.69973,  Dec: +02 03 08.59828 (2000.0)
! Established model.
! Flux (Jy) Radius (mas)  Theta (deg)  Major FWHM (mas)  Axial ratio   Phi (deg) T \
! Freq (Hz)     SpecIndex
  0.838666      0.00000      0.00000 
  0.896369    0.0125000      0.00000 
  0.329380    0.0125000     -90.0000 
 0.0145547    0.0176777      45.0000 
0.00466018    0.0450694      56.3099 
0.00461854     0.151038     -114.444 
0.00458390     0.145774      59.0362 
0.00454907     0.195656     -116.565 
0.00898329     0.201556      60.2551 
0.00449193     0.223607     -116.565 
0.00883120     0.268386     -117.759 
0.00441588     0.229469      60.6422 
0.00869866     0.257391      60.9454 
0.00865825     0.296332     -117.646 
 0.0169318     0.285318      61.1892 
 0.0174168     0.324278     -117.553 
 0.0369096     0.341184     -118.443 
 0.0203944     0.313249      61.3895 
0.00809377     0.358164     -119.249 
 0.0598921     0.369121     -118.301 
 0.0234420     0.330246      60.5241 
 0.0598945     0.386086     -119.055 
 0.0367648     0.341184      61.5571 
  0.240201     0.358164      60.7512 
  0.234267     0.403113     -119.745 
0.00182013      1.06199     -137.862 
 0.0174698      1.07964     -137.816 
0.00337986     0.375208      60.0184 
 0.0407802     0.397060     -118.179 
 0.0178196      1.08894     -138.257 
 0.0159472     0.386086      60.9454 
 0.0150219      1.10659     -138.205 
0.00747736     0.414012     -118.887 
0.00301066     0.397060      61.8214 
 0.0155759     0.414012      61.1134 
0.00289554      1.09829     -138.691 
 0.0151881      1.11594     -138.633 
 0.0138937     0.408121     -117.350 
 -0.129264     0.530330      135.000 
 0.0118570     0.391312     -116.565 
 0.0116585      1.13358     -138.576 
 0.0102002     0.408121      62.6501 
 0.0236125     0.380173     -117.408 
 0.0157412      1.15122     -138.521 
 0.0353119     0.363361     -116.565 
0.00120712     0.391312      63.4349 
0.00808257     0.402531      64.2307 
0.00340272      1.16887     -138.468 
0.00456990      1.14298     -138.991 
 0.0189505      1.16062     -138.930 
0.00110277     0.413824      64.9831 
0.00532812     0.397256      65.8545 
0.00697736     0.408695      66.5713 
0.00582530      1.15244     -139.399 
0.00568785      1.17825     -138.871 
0.00557188     0.403887      68.1986 
 0.0167361     0.352225     -117.474 
0.00983460      1.17007     -139.332 
0.00438098     0.415519      68.8387 
0.000860053      1.19589     -138.814 
0.000855682      1.39665     -134.275 
0.00336217      1.13633     -140.356 
0.000850423     0.399414      69.8637 
0.000841391      1.16196     -139.800 
0.00493058     0.411172      70.4633 
0.00246233      1.43233     -133.586 
0.000821199      1.11081     -140.937 
0.000815013      1.12840     -140.845 
0.00319299      1.10298     -141.442 
0.000793766      1.45908     -133.264 
0.00313457     0.422973      71.0296 
0.000785261      1.46820     -132.930 
0.000783470      1.07769     -142.067 
0.00231224      1.09523     -141.953 
0.00303545      1.47738     -132.600 
0.00152308     0.407162      72.1213 
0.00224825      1.07005     -142.595 
0.000753953      1.08757     -142.472 
0.00583451     0.419076      72.6460 
0.000736964      1.48661     -132.274 
0.00362516      1.06250     -143.130 
0.00215856      1.51353     -131.987 
0.00280517      1.05505     -143.673 
0.00277112      1.52285     -131.673 
0.00208766     0.431024      73.1416 
0.00272647      1.04769     -144.224 
0.00203164     0.415519      74.2914 
0.00134420      1.53221     -131.362 
0.00394366      1.04043     -144.782 
0.00516549     0.427566      74.7449 
0.00196247      1.54161     -131.055 
0.00252936      1.55106     -130.752 
0.00254403      1.03327     -145.349 
0.000623711      1.02622     -145.923 
0.00124025     0.439638      75.1735 
0.000621166      1.04358     -145.739 
0.00122803      1.56055     -130.452 
0.00244158      1.03660     -146.310 
0.00359578     0.424448      76.3730 
0.00239021      1.57008     -130.156 
0.00296243      1.02971     -146.889 
0.000584063      1.57966     -129.864 
0.00342978     0.436606      76.7595 
0.00229941      1.02294     -147.475 
0.00171877      1.57167     -129.514 
0.00224926      1.02690     -148.438 
0.00222682      1.58134     -129.226 
0.00219393     0.421678      78.0239 
0.00273005      1.02042     -149.036 
0.00215832      1.59104     -128.941 
0.00469174     0.433914      78.3664 
0.00159793      1.02485     -149.995 
0.00105373      1.60078     -128.660 
0.00250836      1.01865     -150.604 
0.00254922      1.60283     -128.032 
0.000515735      1.59300     -128.309 
0.00102916      1.02355     -151.557 
0.00289224      1.01766     -152.176 
0.00524386     0.419263      79.6952 
0.000498778      1.02302     -153.122 
0.000497748      1.61269     -127.758 
0.00242827      1.01743     -153.750 
0.000494458      1.60507     -127.405 
0.00384423      1.61502     -127.136 
0.00146214     0.431567      79.9920 
0.00191720      1.01796     -155.323 
 0.0231527      1.04291     -166.130 
0.00365139     0.313249     -118.610 
0.00545166      1.60750     -126.781 
0.00313199     0.404853      81.1193 
 0.0117968     0.330246     -119.476 
0.00551730      1.60005     -126.422 
0.00382565     0.392508      80.8377 
0.00515661     0.378319      82.4054 
0.00121127      1.60278     -125.797 
0.00392835      1.59266     -126.060 
0.000400342      1.01404     -149.642 
0.000773392     0.319423     -120.579 
0.00229984     0.347311     -120.256 
0.00114745     0.365932      82.1467 
0.00546530     0.336573     -121.329 
0.000383320      1.00972     -148.671 
0.00585064      1.59550     -125.433 
0.00741740     0.352003      83.8845 
0.000368377      1.01242     -147.095 
 0.0136125      1.05505     -166.293 
0.000363299      1.58533     -125.695 
0.000359586      1.00195     -146.706 
0.00508252     0.353774     -122.005 
0.000688885     0.998515     -145.713 
0.00169521      1.59853     -124.808 
0.00429261      1.58829     -125.066 
 0.0105110     0.338425      85.7636 
0.000330064     0.995380     -144.713 
0.00192734     0.371021     -122.619 
0.000946098     0.325960      85.6013 
0.00219117      1.59143     -124.439 
-0.0110601     0.512500      12.6804 
0.00246951     0.992550     -143.707 
0.00274466     0.388306     -123.179 
0.00149754      1.57807     -125.327 
0.000904220      1.58114     -124.695 
0.00144237      1.00000     -143.130 
0.000581116     0.405625     -123.690 
0.00199155      1.56789     -125.591 
0.000291323     0.416083     -122.735 
0.000573389     0.422973     -124.160 
0.00112930      1.57088     -124.955 
0.00374519      1.06720     -166.452 
0.00138618     0.433373     -123.232 
0.00109611      1.01003     -143.556 
0.00215369      1.55774     -125.858 
0.00160928     0.450694     -123.690 
0.00108083     0.312750      87.7094 
0.00415966     0.325240      87.7974 
0.00129872      1.01750     -142.989 
0.00206437      1.54763     -126.129 
0.00128579     0.468041     -124.114 
0.000504022      1.53755     -126.404 
0.000251576     0.485412     -124.509 
