! Center RA: 16 35 15.49298,  Dec: +38 08 04.50043 (2000.0)
! Tentative model.
! Flux (Jy) Radius (mas)  Theta (deg)  Major FWHM (mas)  Axial ratio   Phi (deg) T \
! Freq (Hz)     SpecIndex
-0.0483029    0.0632456      108.435 
-0.0156867    0.0400000      90.0000 
-0.00390197    0.0447214      116.565 
0.000244839     0.240000      180.000 
0.000486165     0.220907     -174.806 
0.00145701     0.200998     -5.71059 
0.00232645     0.220000      180.000 
0.00240465     0.181108     -6.34019 
-0.000721973     0.250599     -61.3895 
0.000420673     0.169706     -135.000 
0.000519291     0.220907      174.806 
0.00131220     0.184391     -130.601 
-0.000532446     0.233238     -59.0362 
0.00194243     0.161245     -7.12502 
0.000209026     0.200998      174.289 
0.000562617      2.28079     -54.6375 
-0.000132452     0.216333     -56.3099 
0.000460033     0.203961      168.690 
0.000350278      2.28569     -55.3366 
-6.36026e-05     0.205913     -60.9454 
-0.000960029     0.188680     -57.9946 
-0.000626899      3.88129     -88.5236 
-0.000155629     0.268328     -63.4349 
0.000654061     0.208806      163.301 
-0.000740181      4.49542     -79.4900 
0.000473305      4.54321     -66.9339 
0.000386690      5.57459     -68.3131 
8.79532e-05      4.07185     -65.3231 
-9.57265e-05     0.286356     -65.2249 
-0.000174688     0.631506     -79.0459 
4.22857e-05      2.35669     -59.9536 
0.000623498      1.77234     -49.1182 
0.000406016      4.05369     -65.2051 
0.00145508     0.141421     -8.13010 
0.000132371     0.189737      161.565 
3.93737e-05      4.32356     -69.1337 
0.000345824      2.37403     -60.1952 
0.000141220     0.170880     -159.444 
-0.000526632      1.82800     -53.0047 
1.96575e-05      4.33520     -69.4749 
0.000395362     0.196977      156.038 
0.000617237     0.188680     -122.005 
0.000375009     0.466476     -30.9638 
0.000195879      1.65614     -47.4470 
0.000260575      2.06620     -85.5588 
7.14020e-05      4.22871     -81.2950 
-0.000220798      6.09055     -71.6245 
-0.000355093      3.53644     -75.2564 
-0.000288889     0.483735     -97.1250 
-0.000432740      5.99953     -69.5110 
0.000215217      4.31648     -69.3818 
-0.000362756      4.09941     -75.0146 
-0.000100293      3.19180     -76.2250 
-0.000131666      2.13776     -79.2157 
-0.000447456      3.38325     -65.5560 
-0.000273569      1.41322     -63.0723 
0.000152473      1.64924     -67.1663 
0.000370406      2.96142     -64.8195 
0.000179520      3.78513     -69.2668 
-0.000262710      5.65703     -74.8337 
-7.91119e-05      5.83136     -76.9170 
-0.000369243      2.15379     -79.8379 
-0.000578143     0.172047     -54.4623 
0.000145839      1.85224     -65.0952 
-0.000201735     0.278568     -68.9625 
0.000122045      4.23178     -81.0274 
-0.000136138      2.82007     -89.5937 
-0.000283545     0.635610     -77.2756 
-0.000170199      5.74442     -77.1250 
0.000106478     0.181108      83.6598 
-0.000259903      1.78370     -30.3027 
0.000178666     0.477074     -33.0239 
7.71330e-05      5.22934     -75.3791 
0.000255378      2.75572     -74.8543 
0.000267065      2.25743     -82.8750 
4.43389e-05      1.53375     -77.9574 
-0.000210999     0.188680      32.0054 
-0.000220367      3.86083     -88.8127 
0.000310645      3.95049     -74.1343 
0.000148705      5.75694     -67.5333 
-0.000115618      3.18710     -76.5742 
0.000156916     0.164924     -165.964 
8.50792e-05      4.06389     -83.7844 
0.000229929      1.04173     -86.6981 
-0.000251934      3.87081     -71.0033 
0.000249231      3.93304     -85.3331 
0.000226743      4.60317     -80.4968 
6.79855e-05      1.45134     -78.0707 
6.87421e-05      4.30832     -77.1250 
1.45346e-05      5.24870     -75.4342 
0.000205850      5.11789     -76.6697 
0.000339776     0.178885      153.435 
0.000125668      3.72543     -81.0434 
0.000126773      4.86572     -63.6456 
0.000130630      5.25376     -75.2231 
-0.000205000      6.20880     -73.7250 
6.88120e-05     0.184391      77.4712 
-7.71951e-05      4.35614     -82.6140 
-0.000153540      1.26254     -40.5029 
0.000159464      5.56723     -68.5044 
-9.94662e-05      5.28564     -69.1648 
-0.000239004      4.77837     -75.2076 
0.000205265      2.06785     -85.0063 
6.30811e-05      1.52971     -78.6901 
0.000473122     0.161245      82.8750 
3.92931e-05      4.21848     -80.4484 
-0.000136210      2.84000     -90.0000 
9.61627e-05      1.66973     -46.9415 
0.000233668      3.64049     -89.0556 
-0.000208970      3.58022     -68.0203 
-6.20894e-05      4.08534     -74.6711 
-7.39782e-05      5.83592     -76.7258 
-0.000112427     0.178885      26.5651 
0.000133786      4.28019     -74.2753 
9.40172e-05      5.20584     -64.0256 
-0.000156912      1.40471     -61.9755 
0.000207924      3.26098     -68.7859 
-0.000175736      1.30138     -87.3575 
0.000160951      4.20918     -79.5978 
-0.000141722      2.50056     -82.6476 
8.57677e-05      4.08025     -65.0679 
0.000119953      3.77809     -69.5505 
0.000105652      3.45584     -77.9747 
0.000204199     0.432666     -56.3099 
-0.000118454      2.88014     -83.2204 
0.000137617      4.32009     -63.3163 
0.000117690      1.63083     -66.8937 
-1.21565e-05      2.78259     -87.5283 
-8.81927e-05      5.74891     -76.9307 
9.67743e-05      1.42773     -78.6901 
0.000118786      1.84272     -64.2693 
-0.000387321     0.161245      29.7449 
-2.36196e-05      2.02781     -67.9887 
0.000125581      5.77543     -67.6091 
-0.000274662     0.260768      122.471 
-8.44571e-05      4.35876     -82.3532 
-4.47703e-05      1.54829     -61.4486 
-4.55262e-05      4.17555     -85.0540 
3.34382e-05      3.19356     -64.3978 
-9.31656e-05      4.08010     -74.9419 
-9.52612e-05      2.01693     -67.2490 
0.000102997      1.54932     -78.8351 
2.21496e-05      4.55109     -66.7022 
-2.25868e-05      1.28655     -78.3407 
1.12582e-05      3.75159     -80.4875 
0.000101872     0.152315     -156.801 
-6.33937e-05      5.29728     -69.4440 
5.30956e-05      6.31709     -77.1957 
-9.17694e-05      3.18277     -80.5969 
7.12481e-05      1.99850     -76.1028 
-0.000111317      1.96825     -47.8830 
-0.000121271      1.26696     -78.1579 
0.000140988      3.46006     -77.6508 
9.06443e-05      4.40000     -90.0000 
0.000130864     0.926499     -76.2637 
-1.08267e-05      2.76355     -87.0962 
-0.000100166      4.17387     -85.3276 
-0.000118487      2.48652     -73.1683 
6.96202e-05      1.85925     -58.1906 
-6.98803e-05      3.50091     -88.6906 
5.90659e-05      5.21463     -63.8281 
-7.84247e-05      1.56589     -61.7984 
-5.06328e-05     0.161245     -60.2551 
4.92633e-05      1.65517     -46.4688 
4.90931e-05      3.17553     -64.2419 
-4.90791e-05      4.94813     -73.3229 
4.92513e-05      4.60652     -80.2514 
6.83769e-05      5.09843     -76.6179 
6.80588e-05      4.18951     -79.5484 
9.64573e-05      5.77765     -73.5097 
-6.74021e-05      5.63773     -74.7805 
-2.90936e-05      1.81604     -53.5087 
1.94906e-05      3.69676     -81.9137 
4.78056e-05      6.36616     -67.4632 
3.84062e-05      6.32155     -77.0190 
-4.79094e-05      6.00656     -69.3323 
1.91681e-05      4.06177     -84.0648 
1.93196e-05     0.377359     -32.0054 
-2.85552e-05      1.50944     -32.0054 
-3.79193e-05      3.80000     -90.0000 
-1.89971e-05      3.55578     -75.3385 
-1.89201e-05      1.24740     -41.0995 
-1.89926e-05      5.29029     -69.6468 
-1.87527e-05      2.00639     -66.5014 
1.87826e-05     0.360555     -33.6901 
2.81092e-05      2.38663     -76.4296 
9.37389e-06      5.08944     -66.8605 
9.33925e-06      5.34580     -76.5876 
-9.28299e-06      3.71295     -72.4435 
9.24415e-06      3.62050     -89.0504 
9.21459e-06      1.32061     -54.8658 
