! Center RA: 16 13 41.06424,  Dec: +34 12 47.90878 (2000.0)
! Established model.
! Flux (Jy) Radius (mas)  Theta (deg)  Major FWHM (mas)  Axial ratio   Phi (deg) T \
! Freq (Hz)     SpecIndex
  0.155477      0.00000      0.00000 
 0.0197693    0.0282843     -45.0000 
 0.0733273    0.0200000     -90.0000 
 0.0635102    0.0200000      0.00000 
 0.0837297     0.349857      30.9638 
0.00527187    0.0282843     -135.000 
0.00513827    0.0894427     -153.435 
 0.0266143     0.322490      29.7449 
 0.0134312    0.0400000      0.00000 
 0.0145052     0.107703     -158.199 
 0.0138638    0.0632456      18.4349 
 0.0178019     0.126491     -161.565 
 0.0207999    0.0824621      14.0362 
 0.0201414     0.145602     -164.055 
0.00397917    0.0894427      26.5651 
0.00381116     0.144222      33.6901 
0.00745808     0.164924     -165.964 
 0.0140856    0.0600000      0.00000 
 0.0560812     0.188680      32.0054 
 0.0470435     0.367151      29.3578 
 0.0105938     0.184391     -167.471 
0.00668586     0.203961     -168.690 
 0.0154724    0.0447214     -26.5651 
0.00641976     0.220907     -174.806 
 0.0205427     0.240832     -175.236 
 0.0211225    0.0632456     -18.4349 
0.00271129     0.189737     -161.565 
 0.0408386     0.394462      30.4655 
0.00521913     0.260000      180.000 
0.00264260     0.116619     -149.036 
0.00259766     0.280000      180.000 
0.00250342     0.228035     -164.745 
0.00536866     0.184391      167.471 
0.00244410     0.280713     -175.914 
 0.0132741     0.233238      30.9638 
0.00240778     0.144222     -146.310 
0.00239285     0.203961      168.690 
0.00683948     0.300666     -176.186 
0.00448761     0.100000      0.00000 
 0.0151671     0.189737      161.565 
0.00231657     0.234094     -160.017 
0.00671911    0.0824621     -14.0362 
0.00529475     0.128062     -141.340 
0.00625755     0.320624     -176.424 
0.00211291     0.252982     -161.565 
0.00785947     0.101980     -11.3099 
0.00593609     0.113137     -135.000 
0.00742423     0.205913      29.0546 
0.00199477     0.178885      153.435 
0.00561820     0.272029     -162.897 
0.00198088     0.288444      123.690 
0.00563602     0.120000      0.00000 
 0.0300351     0.250599      28.6105 
0.00920515     0.340000      180.000 
0.00555728     0.196977      156.038 
 0.0140552     0.300000      126.870 
0.00453709     0.208806      163.301 
0.00181110     0.100000     -126.870 
0.00180194     0.228035      164.745 
0.00362795     0.316228      124.695 
 0.0128574     0.121655     -9.46232 
0.00180647     0.128062     -128.660 
 0.0256775     0.421900      31.4296 
 0.0127859     0.215407      158.199 
0.00482856     0.291204     -164.055 
0.00487671     0.411825      119.055 
0.00855703     0.116619     -120.964 
0.00324184     0.340588      176.634 
0.00156632     0.278568     -158.962 
 0.0139639     0.429418      117.759 
0.00445436     0.312410      129.806 
0.00151749     0.178885      26.5651 
0.00288869     0.360555      176.820 
0.00596504     0.234094      160.017 
0.00282245     0.404969      32.9052 
0.00268568     0.310483     -165.069 
0.00925313     0.107703     -111.801 
0.00143440     0.140000      0.00000 
0.00401589     0.360000      180.000 
0.00785498     0.297321     -160.346 
0.00670979     0.311127      135.000 
 0.0168716     0.141421     -8.13010 
0.00272028     0.252982      161.565 
0.00131011     0.260000      157.380 
0.00799369     0.121655      99.4623 
0.00990777     0.268328      26.5651 
0.00253341     0.278568      158.962 
0.00246332     0.325576      132.510 
 0.0121483     0.420476      115.346 
0.00464839     0.297321      160.346 
0.00233910     0.325576      137.490 
0.00749153     0.380000      180.000 
 0.0214566     0.101980     -101.310 
 0.0159786     0.120000      90.0000 
0.00534818     0.339411      135.000 
0.00819135     0.323110      158.199 
0.00880829     0.316228     -161.565 
0.00299754     0.241661      24.4440 
0.00107413     0.329848     -165.964 
0.00928329     0.449444      32.2756 
0.00290365     0.331059      154.983 
0.00381559     0.353836      132.709 
 0.0160532     0.161245     -7.12502 
0.00795819     0.430813      111.801 
0.000968583     0.160000      0.00000 
0.00279287     0.300000      36.8699 
0.00262120     0.400000      180.000 
0.00176176     0.412311      129.094 
0.00417142     0.349285      156.371 
0.00416582     0.260000      22.6199 
0.00865123     0.425206      131.186 
0.00395107     0.400500      177.138 
0.000858140     0.353836      137.291 
0.00167778     0.284253      39.2894 
0.00240224     0.335261     -162.646 
0.00231712     0.340588      139.764 
0.000810512     0.360555      160.560 
 0.0101503     0.466476      30.9638 
0.000796223     0.297321      42.2737 
0.00294039     0.252982      18.4349 
0.000861460     0.141421      98.1301 
0.00879149     0.442719      108.435 
0.00148161     0.145602     -15.9454 
0.00363176     0.282843      45.0000 
 0.0119136     0.323110     -158.199 
0.00316638     0.140000      90.0000 
0.00207993     0.367696      157.620 
0.000710641     0.398497      162.474 
0.00426192     0.420476      177.274 
0.00303555     0.344093      144.462 
0.000692547     0.440454      129.472 
0.000684069     0.421900      174.560 
0.00187990     0.357771      153.435 
0.00315125     0.272029      17.1027 
0.000666954     0.412311      165.964 
0.000663708     0.269072      48.0128 
0.00169181     0.349857      149.036 
0.00428047     0.164924     -14.0362 
0.00406657     0.272029      53.9726 
0.00466176     0.121655     -99.4623 
0.00289638     0.431741      166.608 
0.00578697     0.453431      131.424 
0.000625863     0.278568      21.0375 
0.00167009     0.100000     -90.0000 
0.00114908     0.297321      19.6538 
 0.0117531     0.483735      29.7449 
0.00218397     0.436807      105.945 
0.00258578     0.291204      15.9454 
0.00190178     0.420000      180.000 
0.00435468     0.474131      27.6460 
0.00102684     0.260768      57.5288 
0.000527692     0.438634      133.152 
0.00701110     0.120000     -90.0000 
0.00406926     0.451221      167.196 
0.00376643     0.456070      105.255 
0.000502890     0.436807      164.055 
0.000492335     0.356090      141.843 
0.00419856     0.268328      63.4349 
0.00134693     0.367151      150.642 
0.000896432     0.316228      18.4349 
0.00629584     0.341760     -159.444 
0.00406912     0.310483      14.9314 
0.00169090     0.360555      146.310 
0.000446665     0.349285      113.629 
0.000440771     0.466905      133.264 
0.000428956     0.331059      115.017 
0.00124231     0.480833      135.000 
0.00199913     0.470744      102.265 
0.00174037     0.316228      108.435 
0.000404766     0.440454      177.397 
0.00150838     0.495177      136.637 
0.00183512     0.470744      167.735 
0.000755639     0.341760      110.556 
0.00101393     0.277849      59.7436 
0.00218416     0.180000      0.00000 
0.00177313     0.490306      101.768 
0.00167704     0.335261      17.3540 
0.000693090     0.440000      180.000 
0.00132910     0.377359      147.995 
0.000363990     0.456070      164.745 
0.000363152     0.170880     -20.5560 
0.000358140     0.456508      118.811 
0.00171173     0.305941      101.310 
0.00134297     0.509902      138.180 
0.00357676     0.475395      165.379 
0.000346509     0.420476     -177.274 
0.000344373     0.178885     -26.5651 
0.000343241     0.335261      107.354 
0.000997679     0.302655      97.5946 
0.000334292     0.477074      123.024 
0.000618700     0.372022      143.746 
0.000649281     0.486621      99.4623 
0.000328324     0.188680     -32.0054 
0.00176555     0.329848      14.0362 
0.000587125     0.322490      97.1250 
0.000319272     0.466476      120.964 
0.000317732     0.184391     -40.6013 
0.000535907     0.300000      90.0000 
0.00235848     0.313050     -153.435 
0.00119119     0.509902      101.310 
0.00146941     0.524976      139.635 
0.00143718     0.440454     -177.397 
0.000599488     0.184391     -49.3987 
0.00143475     0.493964      121.759 
0.00126742     0.491935      26.5651 
0.000814547     0.300666      86.1859 
0.000300828     0.200000     -36.8699 
0.000299496     0.181108      6.34019 
0.000298111     0.126491     -108.435 
0.00180604     0.278568      68.9625 
0.000571255     0.323110      111.801 
0.00110080     0.506360      99.0903 
0.000287569     0.320624      86.4237 
0.000565808     0.141421     -98.1301 
0.00106462     0.354401      16.3895 
0.000283850     0.216333     -33.6901 
0.000547842     0.401995      84.2894 
0.00100442     0.200000      0.00000 
0.00171843     0.100000      90.0000 
0.000545880     0.197990     -45.0000 
0.000272774     0.461736      162.350 
0.000270188     0.388330      145.491 
0.000268397     0.295296     -151.699 
0.00237276     0.540370      141.009 
0.000653221     0.310483      104.931 
0.000522017     0.145602     -105.945 
0.000512470     0.241661     -24.4440 
0.000508372     0.188680     -57.9946 
0.000487559     0.504777      123.690 
0.000504732     0.441814     -174.806 
0.000255693     0.411825      150.945 
0.000720908     0.404475      81.4692 
0.000477916     0.313050      116.565 
0.00161854     0.200000     -53.1301 
0.000483702     0.272029     -143.973 
0.000737229     0.529528      100.886 
0.00138563     0.349285      13.2405 
0.000250563     0.511077      120.579 
0.000953600     0.480833      163.072 
0.000246781     0.256125     -141.340 
0.000696699     0.220000      0.00000 
0.00132756     0.521536      122.471 
0.000810290     0.216333     -123.690 
0.000456773     0.480416      177.614 
0.000465645     0.404969      147.095 
0.000463929     0.252982     -18.4349 
0.000459696     0.424264      81.8699 
0.000235274     0.373631     -164.476 
0.00109870     0.533667      102.995 
0.000230970     0.460435     -177.510 
0.000314126     0.407922      78.6901 
0.000995423     0.134164     -116.565 
0.00120313     0.300666      93.8141 
0.000639590     0.373631      15.5241 
0.00175035     0.101980      101.310 
0.000993103     0.490306      168.232 
0.000652129     0.223607     -116.565 
0.000222474     0.424264     -171.870 
0.000219801     0.468188      160.017 
0.00102471     0.427551      79.2157 
0.00141505     0.272029      72.8973 
0.000214896     0.456946      156.801 
0.000419072     0.272029     -17.1027 
0.00200383     0.164924      165.964 
0.000610440     0.407922     -168.690 
0.000777334     0.240000      0.00000 
0.000208393     0.360555     -160.560 
0.000405440     0.475395      157.751 
0.000987029     0.212603     -48.8141 
0.00117075     0.282843      81.8699 
0.000404886     0.501597      175.426 
0.000385687     0.328024      127.569 
0.000959623     0.234094     -109.983 
0.000397578     0.538516      121.329 
0.00178129     0.556058      142.306 
0.000202569     0.487032      160.821 
0.000583986     0.557853      104.534 
0.000932920     0.368782      12.5288 
0.000894654     0.304631      113.199 
0.000380767     0.291204     -15.9454 
0.000191661     0.465188      154.537 
0.000190806     0.461736     -175.030 
0.00103573     0.553173      102.529 
0.000366326     0.392938      14.7436 
0.00173173     0.288444     -146.310 
0.000366883     0.501199      28.6105 
0.00358259     0.431741      76.6075 
0.000367718     0.532541      124.287 
0.000711767     0.483322      155.556 
0.000532986     0.444072     -172.235 
0.000184157     0.573062      119.249 
0.000361952     0.503587      173.157 
0.000264333     0.240832      4.76364 
0.000530183     0.226274     -45.0000 
0.000351159     0.493964      31.7595 
0.000766417     0.331059     -154.983 
0.000176904     0.590593      118.301 
0.00282391     0.161245      172.875 
0.000342282     0.297321     -19.6538 
0.000700122     0.280713      85.9144 
0.000341669     0.528015      127.304 
0.00230881     0.247386     -104.036 
0.000173314     0.477074      33.0239 
0.000803314     0.228035     -52.1250 
0.000336999     0.600333      119.982 
0.000486028     0.260000      0.00000 
0.000475482     0.506360      170.910 
0.00211791     0.388330      11.8887 
0.000603771     0.501597      23.4986 
0.000636534     0.481664     -175.236 
0.000165231     0.501597      156.501 
0.00103250     0.488262      34.9920 
0.000620983     0.610574      121.608 
0.000295025     0.549181      146.889 
0.000852851     0.316228     -18.4349 
0.000346501     0.472017      36.3844 
0.00199465     0.494773      165.964 
0.000458888     0.538145      131.987 
0.000158127     0.509902      154.440 
0.000156194     0.310483     -14.9314 
0.000422250     0.553173      139.399 
0.000587178     0.549181      100.491 
0.00177595     0.545894      151.557 
0.000905610     0.493964      21.3706 
0.000150638     0.538516      148.671 
0.000148978     0.520000      180.000 
0.000147193     0.240832     -41.6335 
0.000421557     0.280000      0.00000 
0.000146012     0.617738      119.055 
0.000399718     0.463897     -172.569 
0.00132312     0.512640      20.5560 
0.00116182     0.240832     -48.3665 
0.000283422     0.621289      123.179 
0.000413506     0.520384     -177.797 
0.000657081     0.545894      98.4270 
0.00148354     0.107703      111.801 
0.000395049     0.551725      136.469 
0.000530972     0.638122      122.196 
0.000268707     0.551725      133.531 
0.00119241     0.266833      77.0054 
0.00218664     0.484149      38.2902 
0.000378423     0.364966      9.46232 
0.00105190     0.509902      168.690 
0.000847047     0.505964      18.4349 
0.000482026     0.540370     -177.879 
0.000125708     0.648999      123.690 
0.00173880     0.305287     -148.392 
0.000125669     0.300000      0.00000 
0.000574741     0.436807      74.0546 
0.00183623     0.126491      108.435 
0.00107515     0.335261     -17.3540 
0.000123407     0.644050      126.158 
0.000239364     0.617414      114.905 
0.000120344     0.540000      180.000 
0.000462570     0.656049      127.569 
0.000461210     0.543323      96.3402 
0.00131595     0.566392      137.862 
0.000232977     0.320624      3.57633 
0.000653459     0.407922      11.3099 
0.00125583     0.254558     -45.0000 
0.000414202     0.555698      149.744 
0.000775135     0.447214     -169.695 
0.000217216     0.565685      135.000 
0.000113443     0.560000      180.000 
0.000710390     0.635610      114.146 
0.000835373     0.384708      8.97263 
0.000405689     0.668431      128.928 
0.000411520     0.541479      94.2364 
0.000507422     0.560357     -177.955 
0.00124945     0.263059     -98.7462 
0.000207477     0.672012      126.529 
0.000304177     0.340588      3.36646 
0.000375404     0.349285     -13.2405 
0.000524286     0.145602      164.055 
0.00100393     0.563560      152.526 
0.000274368     0.580000      180.000 
0.000186209     0.684105      127.875 
0.000976673     0.540370      92.1211 
0.000610929     0.644050      115.769 
0.000179009     0.681175      130.236 
0.000154441     0.360555      3.17983 
0.000334780     0.580345     -178.025 
8.59513e-05     0.491935      116.565 
0.000697881     0.696563      129.174 
8.44575e-05     0.382099      6.00901 
8.32809e-05     0.354401     -16.3895 
0.000633277     0.653911      113.429 
0.000820528     0.540000      90.0000 
0.000158503     0.244131     -55.0080 
0.000542736      5.20138      159.753 
8.09023e-05     0.483322      114.444 
0.000454093     0.341760     -20.5560 
0.000509584      4.71966      148.870 
0.000410023     0.380526     -3.01279 
0.000227507     0.417612      73.3008 
7.73474e-05     0.526118      171.254 
0.000313740     0.325576      100.620 
0.000152183     0.600333     -178.091 
0.000138004     0.501597      113.499 
0.000288722     0.581378      139.185 
0.000146507     0.256125     -51.3402 
7.35198e-05     0.220907      5.19443 
0.000116789     0.563205      173.884 
0.000221521      5.18035      143.794 
7.25570e-05     0.601332     -176.186 
7.20220e-05     0.500000      163.740 
0.000160889     0.342345      96.7098 
7.17065e-05     0.400000      0.00000 
7.07894e-05     0.543323      173.660 
0.000334195     0.360555      93.1798 
0.000678125     0.252982      71.5651 
0.000129168     0.362215      96.3402 
0.000372398     0.622896      132.397 
0.000601240     0.156205     -129.806 
0.000647761     0.588558      170.218 
0.000246277     0.382099      96.0090 
0.000347911      5.34243      151.612 
0.000953577     0.560357      145.176 
0.000765507      5.35059      151.902 
0.00100378     0.466905     -170.134 
0.000341216     0.512640      110.556 
0.000222967     0.184391     -130.601 
0.000653242     0.345254     -10.0080 
0.000116050     0.637809      131.186 
0.000526260     0.651153      132.510 
0.000111469     0.380526      93.0128 
0.000322712     0.456946      23.1986 
0.000318670      4.96327      148.680 
0.000282254     0.572713      167.905 
0.000620680     0.141421     -135.000 
0.000401370      4.79533      152.152 
0.000205502     0.602993      174.289 
0.000560949     0.121655      170.538 
0.000394013      4.78138      149.036 
0.000200649     0.544059      162.897 
0.000633149     0.449444      20.8545 
0.000357087     0.520000      112.620 
0.000100462      4.80471      151.942 
0.000197337     0.666033      131.348 
0.000287449      4.97369      148.483 
9.86784e-05     0.212603     -131.186 
0.000424376      5.16147      152.541 
0.000602976     0.364966     -9.46232 
9.70834e-05      5.33442      151.321 
0.000518528     0.621289      176.309 
0.000689399     0.486621     -170.538 
0.000749079      5.15302      152.241 
9.42468e-05      5.35888      152.192 
0.000232691     0.228035     -127.875 
9.37448e-05      4.77678      152.577 
0.000182111     0.550273      160.907 
0.000638073      5.21513      154.319 
9.34124e-05     0.560357      92.0454 
9.19134e-05      5.32654      151.029 
0.000871140     0.679412      132.614 
0.000176503      4.78707      151.829 
0.000180195      4.76424      148.912 
0.000265359      5.18961      159.470 
0.000176274      4.76760      152.790 
0.000257836      5.37658      152.291 
8.82412e-05      4.81415      151.731 
0.000651765      4.99075      148.603 
0.000250718      5.30905      150.924 
0.000622065     0.560000      90.0000 
0.000467332     0.572014      143.531 
0.000327762      4.75395      149.119 
0.000541244      4.87582      146.375 
8.51556e-05     0.286356     -24.7751 
0.000219803     0.563205      163.496 
0.000700288     0.423792      19.2900 
0.00130570      5.17088      159.392 
0.000770921     0.382099     -6.00901 
0.000162622      4.77632      153.113 
0.000774030      5.04480      156.891 
0.000445439      4.79654      151.618 
8.12332e-05     0.277849     -30.2564 
8.10079e-05     0.557136      158.962 
8.03738e-05     0.247386      75.9638 
0.000516214     0.622896      174.472 
7.85847e-05      5.38505      152.578 
0.000143792     0.569210      161.565 
0.000292614      4.78519      153.435 
0.000817105      5.30136      150.630 
0.000214547     0.295296     -28.3008 
0.000416233     0.662118      115.017 
0.000601819      5.40281      152.676 
0.000143753     0.572713      155.225 
7.45294e-05      4.74713      148.788 
0.000416764      4.69553      156.930 
0.000539966     0.528015      114.624 
0.000142836      4.73003      148.662 
7.18926e-05     0.506360     -170.910 
0.000140830      4.87032      146.049 
7.02613e-05     0.243310      80.5377 
0.000542274      5.68957      152.354 
0.000388403     0.243310     -99.4623 
0.000136557     0.526118     -171.254 
0.000128618     0.329848      104.036 
0.000839006      4.16125      155.283 
0.000133521      4.71296      148.536 
6.72125e-05      4.88152      145.854 
0.000595216     0.560357      87.9546 
0.000181094      4.83011      153.965 
0.000254682      4.73831      160.265 
0.000368280     0.707672      132.709 
0.000250706      5.18475      144.103 
0.000279000     0.640312      178.210 
6.47790e-05      4.76944      151.716 
0.000509421     0.584123      141.953 
0.000620999     0.545894     -171.573 
0.000294135      5.70656      153.794 
0.000291360      4.89277      145.660 
0.000401445      4.67714      156.834 
0.000322497      4.69591      148.408 
0.000420512      1.07424      151.049 
0.000181805     0.288444     -33.6901 
0.000233498      4.77895      151.504 
0.000257950      5.15926      159.106 
6.22599e-05      4.80554      149.486 
0.000178517      4.56885      148.606 
6.17831e-05     0.576888      146.310 
0.000389607      4.84809      154.069 
0.000679433      5.22383      154.122 
0.000119952     0.575847      159.677 
0.000121005     0.672309      112.751 
0.000117847      5.05541      157.188 
6.06718e-05     0.384708      81.0274 
0.000176926      4.72631      159.955 
0.000159950      4.67889      148.280 
0.000207019      5.26562      156.258 
5.92467e-05      4.98718      149.115 
0.000571821     0.141421      171.870 
0.000190946      5.13533      152.138 
5.82096e-05      4.86477      146.571 
0.000465917      5.20096      144.232 
0.000208345     0.605310      172.405 
0.000111751     0.680294      114.305 
0.000250670      4.68773      157.154 
0.000924299      4.90408      145.467 
5.64709e-05      4.75045      160.573 
0.000112098      4.67247      147.943 
0.000110701     0.583095      157.834 
5.58840e-05     0.689638      106.858 
0.000110374      4.71445      159.643 
0.000107965      4.97695      149.313 
0.000248866     0.417612      16.6992 
0.000267117      1.08407      150.124 
0.000128309      5.28394      156.346 
0.000110338      4.55846      148.821 
0.000106160      4.80608      151.409 
0.000363502     0.721388      133.877 
0.000183187     0.388330      78.1113 
5.45132e-05     0.240832     -131.634 
5.44872e-05      4.68312      147.735 
0.000249973     0.269072     -41.9872 
6.84571e-05      3.64165      154.983 
0.000182702     0.565685     -171.870 
0.000800975      4.15293      155.533 
0.000106142      4.74384      160.801 
0.000284151      5.00120      148.408 
0.000237472     0.475395      22.2490 
0.000598478      5.07385      157.276 
0.000286329      4.55179      148.475 
5.32230e-05      3.61403      154.428 
0.000338087     0.703420      104.826 
5.31106e-05      5.03051      163.366 
0.000186161     0.263059      81.2538 
0.000552574      4.67696      147.397 
5.28639e-05      4.70272      159.330 
0.000224571     0.601664      158.552 
0.000424912      3.65978      155.116 
0.000101921      4.55509      149.381 
0.000100629     0.670820      116.565 
0.000150440      5.69775      153.975 
0.000151335     0.140000      180.000 
0.000770611      5.23083      164.476 
0.000291767      5.69888      152.176 
0.000150155      5.03627      163.148 
0.000465069      4.26357      158.248 
0.000239057      4.68402      159.244 
5.04988e-05      5.42059      152.773 
0.000188924      3.59600      154.290 
0.000273898      4.73730      161.030 
5.01693e-05      1.09179      151.557 
4.98833e-05      4.84004      149.727 
0.000174882      3.68782      155.659 
0.000482209     0.392938      75.2564 
4.95682e-05     0.590931      156.038 
0.000222720      5.66095      150.356 
0.000190911      1.06677      149.589 
0.000234848      5.24481      164.745 
9.62127e-05      1.20333      158.552 
0.000139080      4.98401      149.628 
4.87728e-05      4.52203      147.645 
0.000521071      3.74342      150.559 
0.000105154      4.16005      154.667 
9.44878e-05      5.29381      150.336 
0.000178432      4.81568      151.200 
4.83726e-05      4.77627      153.650 
0.000222653      1.19616      159.444 
4.78357e-05      4.54493      149.598 
9.10027e-05      5.64358      150.255 
0.000332955      5.07307      162.565 
0.000264265      4.46556      146.879 
8.20303e-05      3.72602      150.408 
0.000222917      5.42929      153.057 
0.000135168      4.17732      154.171 
4.66415e-05      4.54528      148.128 
0.000301262      1.31727      149.931 
4.63877e-05     0.269072     -138.013 
0.000369365      4.56219      149.725 
0.000175280      4.24288      149.083 
0.000321626      5.71573      154.063 
0.000682418     0.749667      133.919 
0.000130676      4.65876      156.737 
8.86078e-05      5.01135      163.301 
0.000407409      5.28246      165.753 
0.000430293      3.71618      156.194 
0.000130571      4.75836      153.543 
0.000170118      5.21720      144.360 
0.000251862      1.04957      149.036 
4.42622e-05      5.27530      148.962 
8.64162e-05     0.284253     -39.2894 
0.000158381     0.536656      116.565 
0.000201011      5.24206      145.886 
8.39821e-05     0.588218      144.689 
0.000121139      4.75622      161.108 
0.000192077     0.641249      176.424 
0.000367796      3.56881      153.722 
0.000286727     0.680000      118.072 
0.000333667      4.14468      155.785 
0.000522156     0.722772      104.421 
8.25447e-05      4.21284      153.800 
7.29702e-05      4.84731      150.050 
0.000727074      3.75047      147.412 
0.000337492      4.66532      159.156 
0.000624840     0.322490     -150.255 
0.000185256     0.269072     -48.0128 
0.000434300      5.43949      162.231 
7.88077e-05      1.04995      162.255 
0.000117644      5.25817      148.849 
0.000220168      5.71657      152.269 
4.04984e-05      4.61671      154.878 
0.000877672      4.21545      149.176 
4.04610e-05      1.42352      155.956 
4.03176e-05      4.97393      149.826 
0.000217449      4.45982      146.524 
0.000152764      4.98646      163.455 
0.000155090      4.24500      158.148 
4.00605e-05      5.25760      156.458 
4.00051e-05      1.06902      162.582 
0.000106428      4.71695      157.567 
0.000211650     0.313050     -26.5651 
3.94250e-05     0.620323      159.228 
0.000492864      5.19650      143.924 
0.000113220      4.78853      151.294 
0.000254116      5.63368      150.432 
0.000274796      4.22171      153.556 
3.92662e-05      1.21491      159.775 
0.000232556     0.453431      41.4237 
0.000446066      5.68014      146.198 
0.000176897     0.561427      85.9144 
0.000146922      1.06320      163.610 
0.000245560      1.44180      156.280 
0.000108152      4.99123      149.942 
0.000209082     0.865563      130.314 
0.000630002      3.59956      165.192 
7.24309e-05      4.74046      153.435 
0.000147848      1.03247      148.465 
7.20719e-05      4.99472      148.092 
0.000339301      1.32740      149.184 
0.000111337     0.240832     -94.7636 
0.000749043      3.96434      142.379 
0.000171366     0.557853      165.466 
3.79454e-05      4.89351      154.587 
0.000349296      4.76424      143.707 
0.000131958      5.27595      156.545 
3.75403e-05      5.23209      160.110 
0.000806723      4.44315      146.381 
0.000108178      4.21900      158.299 
7.15830e-05      4.64835      156.413 
0.000106720      1.18186      156.038 
0.000285159      4.73084      161.259 
0.000165124      5.21268      144.053 
0.000320547     0.763675      135.000 
0.000617966      4.12083      163.940 
3.62726e-05      4.98418      148.287 
0.000760507      5.61177      158.464 
0.000157192     0.379473      71.5651 
0.000411919      5.26300      160.463 
0.000184129      4.61983      155.987 
0.000550973      5.26855      148.663 
6.94967e-05      4.18607      153.925 
0.000252973      5.70789      146.143 
6.42664e-05      4.85732      149.845 
0.000461431      4.48018      156.869 
0.000680001      5.25330      145.705 
6.91270e-05      5.30185      165.806 
0.000315392     0.260768      85.6013 
0.000194172     0.600000      143.130 
0.000318009      4.91862      168.507 
3.47121e-05      4.94243      163.545 
6.83645e-05      1.04307      147.529 
0.000482595     0.660000      180.000 
0.000228923     0.260768     -94.3987 
0.000242830      4.76139      151.390 
0.000160428      1.08240      163.909 
0.000401967      4.96713      166.020 
0.000235061      3.95399      160.190 
0.000398417      5.05399      162.497 
4.70540e-05      5.70701      154.243 
0.000146389      5.31880      150.736 
0.000570852      5.90356      156.648 
0.000364928     0.380526      3.01279 
0.000156743      5.29698      166.016 
5.14821e-05     0.596657      140.440 
0.000155451      3.72650      156.600 
0.000242542      4.88410      154.274 
9.18251e-05     0.966644      155.556 
3.28594e-05      5.21156      164.417 
0.000236880      1.02626      146.929 
0.000293881     0.660303      178.264 
8.57116e-05      4.67097      147.058 
0.000508964     0.380000      0.00000 
3.23448e-05      5.60892      154.440 
6.33124e-05      4.89281      163.862 
0.000310757      3.75329      150.293 
6.04037e-05      1.16362      155.638 
0.000135787      5.86842      152.387 
6.10629e-05      4.19304      158.452 
0.000232235     0.260768     -57.5288 
3.12113e-05      5.62697      154.528 
0.000474778      5.45853      162.295 
6.09698e-05      3.54198      153.146 
0.000314911      1.09636      165.203 
0.000230366     0.609262      156.801 
0.000190529      5.07200      167.937 
8.36551e-05      4.97775      147.970 
3.04714e-05      5.70729      152.447 
0.000142533      1.46014      156.595 
0.000209024     0.543323      83.6598 
0.000164964      5.31120      150.442 
3.02193e-05      1.22703      160.974 
9.27027e-05      5.73372      154.150 
0.000436839      5.64836      164.389 
0.000109462     0.880909      129.472 
2.95878e-05      4.87360      163.796 
2.95897e-05     0.975090      154.486 
0.000138420      5.75590      148.353 
5.80904e-05      5.55485      154.173 
0.000316865      3.67527      168.384 
0.000601973      1.19097      139.086 
0.000235381      4.23065      153.314 
0.000161753     0.331059     -25.0169 
7.93463e-05      4.88148      146.701 
0.000110045      1.34462      149.621 
0.000570712      5.31639      166.068 
0.000388626      5.65378      164.194 
0.000197006      4.16711      158.607 
5.53981e-05      4.86806      164.022 
5.44737e-05     0.375766      64.7989 
0.000248067      3.58022      165.110 
0.000194390      3.73700      157.003 
2.80706e-05      4.47147      145.386 
2.79935e-05      4.13459      164.283 
0.000108266      3.73973      147.670 
0.000224756      4.89506      168.690 
0.000295092     0.662420      118.887 
2.76733e-05      3.53327      152.710 
2.75716e-05      5.64503      154.615 
4.50923e-05      4.45394      157.004 
0.000163112      4.11534      164.208 
0.000837853     0.742159      104.036 
0.000300186     0.553173      167.471 
9.26269e-05      3.75542      157.122 
0.000141280     0.280000      90.0000 
2.71681e-05      5.03337      150.481 
0.000252622      3.55584      159.934 
2.71151e-05      1.45231      157.319 
0.000212814      5.53686      154.083 
0.000103307      4.80820      142.606 
2.67416e-05      1.23968      162.150 
5.19339e-05      4.11874      165.087 
2.62143e-05      5.35014      154.776 
7.55604e-05      4.48286      145.176 
7.53089e-05     0.976934      157.109 
0.000265187      4.72445      161.488 
0.000117761      3.52477      152.272 
0.000290279      4.84883      163.957 
9.71428e-05      4.46179      156.768 
0.000132898      5.05846      150.901 
0.000189689      1.47078      157.620 
0.000224126      1.00955      146.310 
0.000160239      4.73426      151.486 
0.000394260      3.75665      147.833 
5.01024e-05      1.33776      148.449 
0.000137951      3.38000      157.380 
0.000126798      4.64663      159.069 
0.000111144      4.60977      155.659 
0.000467158      5.77294      148.458 
6.92644e-05      5.19669      153.731 
0.000114853      5.58068      146.993 
2.49565e-05      5.30226      156.432 
0.000138745      5.72503      154.330 
0.000522567      3.97658      142.150 
4.88296e-05      4.11364      165.356 
4.77317e-05     0.425206      48.8141 
4.77104e-05      3.76324      150.029 
7.04073e-05      3.80316      157.751 
2.42172e-05      3.96611      160.560 
2.41471e-05      5.61840      154.712 
0.000258801      4.75129      170.062 
0.000213771      4.79233      142.461 
0.000437418      1.35484      148.891 
0.000131123      3.43639      169.606 
2.38076e-05      5.41793      156.274 
0.000166785      1.11086      166.464 
5.45108e-05      1.25873      162.429 
6.82756e-05      4.47795      144.819 
6.84098e-05      4.13299      165.426 
0.000170002      4.23967      153.072 
0.000501219      5.09156      167.984 
0.000170436      2.73123      165.150 
0.000289641      3.86994      158.474 
0.000183022      6.00407      143.397 
0.000101096      3.75446      165.816 
2.30049e-05      4.86465      150.167 
0.000395263      4.19829      149.036 
2.29202e-05      3.42041      169.216 
5.70074e-05      3.62949      141.488 
0.000117589     0.868332      128.454 
0.000176588      4.95262      165.739 
7.96399e-05      5.43625      156.359 
5.24328e-05     0.995389      157.557 
0.000284980      3.69486      168.447 
6.61902e-05      5.47156      162.559 
8.33742e-05      3.17503      162.022 
8.57666e-05      3.79057      149.918 
8.64282e-05      5.06320      156.980 
0.000121986      1.47851      156.903 
6.32313e-05      4.44882      146.739 
0.000155292      5.36824      154.867 
0.000358888      5.73174      162.956 
9.01078e-05     0.100000      126.870 
0.000127726      3.79710     -174.560 
2.21333e-05      3.98497      160.656 
0.000269003      3.61386      141.291 
0.000184548      1.00658      159.044 
0.000129852      3.40076      169.153 
8.07396e-05      3.10368      153.600 
6.39903e-05      4.77066      140.102 
6.34521e-05      4.15235      165.495 
0.000136521     0.545894      81.5730 
0.000189719      2.52230      169.492 
7.97661e-05      1.14403      126.469 
8.78911e-05      4.12146      146.079 
5.73960e-05      5.88615      152.477 
0.000163638     0.272029     -53.9726 
8.06276e-05      4.50835      143.842 
2.13625e-05     0.987927      158.629 
2.13697e-05      3.68000      180.000 
2.13174e-05      3.63456      135.223 
8.05851e-05      1.12588      167.692 
0.000222909      6.38464      146.111 
5.56571e-05      4.96081      147.848 
0.000608227      1.16017      125.882 
8.70436e-05     0.360555     -19.4400 
4.07985e-05      4.47321      144.462 
0.000127789      4.30706      161.313 
0.000182040      3.99730      161.021 
0.000169024      3.70000      180.000 
9.92655e-05      6.30796      156.849 
0.000411048      3.18126      161.679 
2.07890e-05     0.554617      115.641 
0.000389762      3.66284      135.221 
0.000136776      2.30339      159.677 
0.000119121      3.50708      152.120 
4.32981e-05     0.728011      105.945 
9.00347e-05      3.80789      150.068 
0.000333575      3.97336      144.630 
0.000373407      5.20438      135.311 
0.000135223      4.14849      158.506 
0.000589564      4.78351      139.918 
0.000327846      5.27523      160.741 
7.59859e-05      2.32215      159.848 
6.70400e-05     0.260000     -90.0000 
0.000453930      3.77915     -174.229 
2.00406e-05     0.438634      46.8476 
-0.000600984     0.859069     -167.905 
2.00304e-05      3.39841      140.972 
5.65772e-05      3.56090      165.027 
0.000130735      1.20615      139.708 
9.20988e-05      5.59160      146.821 
0.000203928      4.11033      146.310 
1.98994e-05      4.14135      153.930 
3.92762e-05      4.17171      165.564 
0.000273031      6.31585      156.682 
5.56123e-05     0.373631     -15.5241 
0.000262581      3.38290      140.758 
1.94358e-05      1.27781      162.699 
0.000381108      3.41672      169.545 
0.000181256      5.02892      162.646 
1.92164e-05      4.52018      143.637 
1.91560e-05      4.10721      163.595 
8.99023e-05      4.77648      142.314 
0.000235839      2.82482      144.509 
0.000149928      2.75056      165.256 
0.000319424      4.72817      170.259 
0.000193312      1.48930      157.913 
8.87730e-05      4.19109      165.632 
6.89424e-05      3.38774      157.068 
1.88099e-05      4.48486      144.254 
4.01779e-05      5.51888      153.992 
0.000168286      3.65437      172.136 
3.65213e-05      3.66005      179.687 
0.000111060      1.14140      168.887 
0.000152211      4.71814      161.719 
3.51504e-05      4.71669      151.370 
0.000219557      5.18787      153.929 
3.62138e-05      3.49228      163.018 
1.84496e-05      4.91467      168.736 
8.32374e-05      6.03526      145.941 
0.000111559      5.06628      151.209 
0.000317869      4.55390      168.345 
0.000180075      3.28938      146.407 
3.58742e-05      3.51648      151.832 
6.25121e-05      3.69140      165.888 
3.49024e-05      4.65420      146.925 
6.43709e-05      4.59987      155.329 
0.000132386      4.48040      143.897 
0.000576193      5.08047      172.763 
0.000119799      5.25010      164.534 
5.15086e-05      5.16422      143.663 
0.000366948      3.66268      177.809 
3.38777e-05     0.672309      120.379 
3.35261e-05     0.960417      148.627 
0.000317887      2.73642      164.745 
0.000127324      4.56465      165.538 
1.74679e-05      3.09477      153.104 
0.000174306      5.50974      153.714 
1.71978e-05      4.07185      167.807 
5.03846e-05      5.88996      160.150 
7.88973e-05     0.277849     -59.7436 
3.02540e-05     0.992975      145.670 
8.10006e-05      4.06768      168.082 
9.10973e-05      4.62796      158.980 
0.000148323     0.599333      154.290 
0.000202857      3.49886      151.677 
4.87682e-05      6.01601      143.244 
1.67567e-05      4.21046      165.700 
0.000194033      4.76428      142.505 
0.000107690      5.60835      146.933 
4.49288e-05      4.00979      161.384 
4.29793e-05     0.735391      135.000 
1.66358e-05      3.76733      147.575 
1.65374e-05      3.82523      150.218 
3.25432e-05      3.04237      151.750 
7.35342e-05      5.88520      156.571 
0.000106902      3.54158      164.944 
5.93511e-05     0.549181      79.5085 
4.56251e-05      4.56530      149.165 
1.63985e-05      5.89851      144.801 
1.61817e-05      3.92983      151.087 
0.000252417      5.47759      162.359 
5.67131e-05     0.609590      138.991 
0.000219462      5.90203      160.398 
3.18943e-05      5.14813      143.531 
0.000113299      4.82962      163.892 
8.25296e-05      4.87463      149.964 
1.60457e-05      6.39015      146.360 
2.74960e-05     0.735935      132.797 
0.000121768      4.10161      163.863 
8.96836e-05      1.48661      169.144 
-7.59632e-05     0.939149     -153.435 
7.22551e-05      6.13091      151.345 
9.93707e-05     0.360000      0.00000 
8.84526e-05      4.47236      157.104 
0.000116006      3.94735      151.227 
0.000151854      3.74005     -179.694 
8.51362e-05      4.93822      165.457 
1.57267e-05      3.49817      162.705 
6.53932e-05      4.57231      149.509 
0.000132044      5.00388      162.796 
0.000337446      5.56597      160.914 
0.000327905      3.03434      151.239 
4.32473e-05      4.16677      165.830 
4.28010e-05      3.66350      177.497 
9.70497e-05      5.89376      144.530 
4.58062e-05     0.529528     -169.114 
-0.000112116      1.86687      175.083 
1.55210e-05      4.63746      146.790 
1.54994e-05      6.32636      156.920 
0.000226454      4.90930      145.792 
0.000204644      4.45426      146.167 
0.000127643      3.88855      158.582 
7.27948e-05      4.46865      144.105 
7.71772e-05      3.67200      165.812 
5.16430e-05      4.89195      150.081 
1.52803e-05     0.981835      146.634 
2.92224e-05      5.13206      143.398 
1.52498e-05      5.68120      154.788 
2.93684e-05      4.09141      167.866 
0.000228894      6.11706      158.720 
6.64399e-05      1.15741      170.049 
1.51961e-05      6.02800      143.092 
1.51291e-05      4.02517      152.798 
3.66300e-05      4.93773      147.404 
6.79154e-05      5.59317      158.389 
0.000210215      7.24442      146.485 
9.55498e-05      4.31968      161.649 
1.49982e-05      4.22985      165.767 
1.49396e-05      5.02354      150.680 
0.000203976      4.08725      168.140 
6.80361e-05      5.11601      143.264 
0.000129455      2.31041      159.212 
8.05035e-05     0.954149      146.976 
0.000234184      3.64867      135.000 
0.000163017      6.12408      142.831 
0.000234012     0.529528      79.1145 
0.000150694      4.73895      158.199 
0.000118802      1.20416      138.366 
7.84193e-05      5.24812      145.402 
0.000144604      3.63456      172.093 
4.12882e-05     0.134164     -153.435 
0.000121955      4.22800     -176.474 
7.91907e-05      3.16765      166.490 
0.000274514      2.80856      144.273 
-4.56456e-05      4.40768      176.618 
-9.56624e-05      1.96010     -171.787 
8.79085e-05     0.412311      75.9638 
0.000250685      3.92326     -177.663 
8.28993e-05      2.85895      137.268 
2.74529e-05      4.69915      151.253 
2.77129e-05      5.61929      146.762 
6.19887e-05     0.284253     -50.7106 
1.42307e-05      3.81293      144.392 
5.11232e-05      1.49693      157.203 
2.71398e-05      5.45458      156.443 
1.40627e-05      5.90390      152.567 
2.65156e-05      4.95459      147.529 
0.000117292      4.73814      172.725 
-0.000285384      4.40890      176.359 
1.40210e-05      6.04003      142.940 
-1.39623e-05     0.930376     -154.537 
2.74982e-05      4.00739      152.668 
0.000193703      1.73217      148.696 
0.000324000     0.549181     -169.509 
0.000230904     0.288444     -56.3099 
0.000112059      4.54031      165.719 
8.14288e-05      3.24099      144.545 
1.36665e-05      3.36933      156.935 
0.000161077      5.33580      166.120 
0.000123507      4.45246      143.954 
-0.000147751     0.921303     -152.879 
0.000225193      1.50625      169.287 
6.58025e-05      4.30781      171.456 
2.41096e-05      1.01390      157.989 
6.40756e-05      3.37028      141.022 
0.000111392      3.78122     -173.928 
2.37936e-05      4.86609      154.172 
2.58143e-05     0.100000      143.130 
2.62596e-05      4.71343      141.720 
0.000138557      6.39303      150.789 
7.54723e-05      3.99890      152.281 
9.54077e-05      3.97316      141.746 
1.32794e-05      3.66960      155.530 
0.000209233      1.36528      148.173 
1.32046e-05     0.120000      180.000 
0.000235357      2.53842     -170.018 
0.000141725      5.27898      148.478 
0.000150114      4.74843      142.358 
1.31203e-05      6.05184      146.047 
1.30332e-05      4.28957      158.099 
0.000158474      1.50785      158.199 
9.37466e-05      5.63603      146.874 
0.000188459      3.78338      149.504 
2.51587e-05      1.00319      156.501 
1.28478e-05      3.71860      156.882 
0.000223636      2.86021      137.834 
6.10853e-05      4.30813      158.199 
2.05889e-05      6.36270      145.760 
1.27708e-05      4.78819      160.733 
8.10233e-05     0.689638      119.539 
0.000112152      6.33422      156.754 
9.86530e-05      5.10000      143.130 
2.32770e-05      3.57799      154.151 
1.26464e-05      5.92166      152.656 
6.70504e-05     0.349285     -23.6294 
0.000186008      3.99084      161.293 
0.000140806      4.09067      172.979 
6.07987e-05      4.33059      171.234 
-0.000415414     0.839524     -167.619 
7.96302e-05      4.15153      154.916 
0.000116146      4.22682     -176.745 
4.55986e-05      1.17388      171.180 
4.69054e-05      4.69774      141.569 
4.81837e-05      3.29557      174.428 
1.23657e-05      4.60213      159.123 
3.58162e-05      4.32759      171.495 
0.000104365      3.71446      168.509 
1.22913e-05      4.62074      146.654 
0.000142726      3.35476      140.807 
0.000192695      6.36805      146.010 
-7.45892e-05      1.84694      175.030 
5.42891e-05     0.976524      145.008 
4.31665e-05      4.92394      165.174 
7.64451e-05      5.26938      164.592 
8.89402e-05      3.37722      156.623 
3.42991e-05      5.47292      156.526 
1.21323e-05     0.688767      115.821 
3.54646e-05      4.81602      163.597 
0.000114301      4.70255      148.744 
7.69107e-05      6.11336      151.255 
5.09319e-05      3.30606      146.598 
9.04718e-05      4.57948      149.852 
0.000175756    0.0848528      135.000 
2.34872e-05      5.04876      151.100 
6.19795e-05      4.76932      160.653 
0.000123233      2.48467      157.770 
-0.000351214     0.682642      31.8274 
-9.23830e-05     0.912360     -153.997 
0.000107381      4.71830      172.694 
-6.38619e-05      1.84878      174.413 
1.18260e-05      5.37676      154.674 
0.000162305      3.97296      151.758 
0.000153781      5.62910      164.334 
0.000256322      4.01123      131.159 
3.30579e-05      6.10377      151.420 
5.42084e-05     0.121655     -170.538 
4.91250e-05      4.59012      154.998 
4.44806e-05      5.88914      144.259 
3.33064e-05      1.10164      164.197 
2.23748e-05      3.66284      134.779 
7.68859e-05      3.75926      148.932 
-0.000113334      4.31337      134.812 
2.30908e-05      1.60162      164.055 
7.60647e-05      3.62436      132.316 
3.33267e-05      4.69289      161.874 
5.22068e-05      5.09231      157.363 
4.26308e-05      5.86686      156.494 
5.13968e-05     0.965194      145.981 
6.82907e-05      5.69083      137.564 
2.25649e-05      5.93029      152.916 
3.29552e-05      3.70815      156.477 
7.20238e-05      3.52227      164.859 
1.15403e-05      4.60404      146.517 
1.14984e-05      1.01134      155.462 
7.41981e-05      5.08401      142.995 
0.000134554      3.72000      180.000 
2.27060e-05      3.75255      148.513 
0.000184794      3.27567      174.394 
4.33645e-05      4.32671      158.297 
6.41070e-05      4.10122     -171.870 
0.000113320      5.92088      160.463 
2.25229e-05      4.46426      143.746 
0.000129762      3.14821      166.405 
0.000264304      5.38004      137.712 
2.21243e-05     0.260000      90.0000 
1.12872e-05      5.60446      158.654 
2.20971e-05      4.58345      159.034 
8.14905e-05      4.70510      170.458 
2.08899e-05      4.60417      150.317 
5.23213e-05      5.25951      145.222 
3.23448e-05      5.03126      150.990 
7.93177e-05      1.72708      151.654 
2.19684e-05      1.19080      172.278 
0.000193189      4.35036      171.274 
1.11637e-05     0.640312     -178.210 
0.000117872      4.58737      146.379 
2.18147e-05      4.79683      163.530 
1.10438e-05      4.33866      161.732 
1.10179e-05      4.12989      158.405 
0.000132612      3.75926     -174.198 
0.000149922      4.08319      168.415 
4.18786e-05      1.62086      164.249 
0.000101968      5.78999      148.561 
1.09584e-05      1.23369      163.034 
9.75254e-05      3.98497      144.395 
0.000203075      2.75572      164.854 
1.09189e-05      1.01980      154.440 
0.000370406      4.76067      179.037 
3.78196e-05     0.608276      136.332 
7.12977e-05      4.54528      165.475 
0.000183699      6.50492      156.825 
1.07893e-05      3.13081      154.253 
1.07566e-05      4.68162      151.136 
0.000112396      5.72591      163.147 
0.000200858      5.07799      172.987 
0.000115557      4.43630      143.802 
0.000128348      5.28757      161.017 
4.86170e-05     0.640000      180.000 
9.39391e-05      5.19018      135.156 
3.00525e-05     0.722496      131.634 
0.000170375      4.24679     -176.760 
1.05623e-05      4.97132      150.341 
1.05232e-05      4.52027      158.999 
8.62053e-05     0.697711      117.300 
0.000272664      4.72089      172.453 
3.58833e-05      3.61707      141.736 
0.000280792      4.22118      178.643 
1.05004e-05      3.29509      146.889 
6.94713e-05     0.549181     -123.111 
1.04688e-05     0.568859      169.875 
1.99833e-05      5.58584      158.580 
1.03499e-05      4.34530      158.394 
2.03801e-05      4.80254      163.301 
3.92655e-05      1.20814      173.346 
0.000100914      3.84760     -173.134 
8.05362e-05      6.08013      142.753 
0.000219781      5.03289      130.972 
0.000118159      4.20752      140.787 
1.02248e-05      5.94811      153.004 
2.90409e-05      2.29172      159.034 
1.02106e-05      4.47088      146.310 
0.000118561      5.87292      144.145 
1.01579e-05      1.02157      156.949 
1.93985e-05      3.74000      180.000 
1.00999e-05      3.65262      165.735 
1.01033e-05      4.50160      158.908 
0.000103643      5.01378      150.879 
6.59831e-05      1.74929      149.036 
6.51712e-05      7.23339      146.618 
9.93326e-06      5.72870      155.672 
-0.000127313      2.63879     -165.964 
1.89062e-05      4.48295      158.816 
2.87070e-05      4.57073      146.240 
5.40962e-05      3.95747      141.566 
0.000115566      4.04836      176.318 
4.16598e-05      4.16864      154.418 
6.79031e-05      3.58268      132.059 
0.000106105      2.66301      162.518 
3.63293e-05      4.45852      170.707 
6.46421e-05      4.48647      163.423 
9.79420e-06      5.49127      156.610 
6.00347e-05      1.03247      158.405 
1.92514e-05     0.297321     -47.7263 
1.89198e-05      4.11130      158.302 
6.39831e-05      5.50091      153.901 
5.29601e-05     0.565685      171.870 
7.25542e-05      5.24976      144.615 
0.000139306      4.09844     -172.147 
9.72639e-06      3.40365      130.711 
9.71462e-06      3.76128      147.155 
9.05773e-05      3.25263      144.258 
3.70120e-05      4.78339      163.232 
9.58961e-06      4.40845      158.440 
6.68963e-05      1.63487      165.114 
9.52495e-06      5.65279      146.985 
2.59074e-05      3.87732      158.199 
2.77003e-05      6.20764      154.013 
1.83687e-05      3.63324      165.658 
9.48691e-06     0.585491      172.147 
9.48224e-06      4.98871      150.455 
9.45533e-06      4.36390      158.491 
0.000153329      3.37544      130.675 
4.16201e-05     0.852760      129.289 
9.44336e-06      5.74693      155.754 
0.000144851      5.95197      160.774 
9.47352e-05     0.340000     -28.0725 
-1.85162e-05     0.486621     -80.5377 
8.14333e-05      4.18803      149.271 
5.50946e-05      3.43313      174.987 
9.27576e-06      5.28564      148.776 
1.83038e-05      4.89808      145.985 
2.59818e-05      4.66648      141.263 
5.82103e-05      5.35522      166.171 
1.79913e-05      5.84852      156.415 
6.48023e-05      4.52093      165.656 
0.000136453     0.576888     -123.690 
9.18446e-06      4.44567      158.629 
7.14544e-05      5.28867      164.650 
0.000150903      2.70267      177.455 
2.56510e-05      5.64191      147.155 
6.35682e-05      3.14025      154.741 
9.01278e-06      1.06452      154.398 
3.24502e-05      3.61475      172.049 
4.15593e-05      5.00983      162.578 
5.92490e-05      4.87955      134.170 
1.73722e-05      5.76517      155.836 
1.74434e-05     0.300000     -53.1301 
8.14096e-05      4.68538      170.417 
8.53693e-05      4.44815      143.594 
4.96653e-05      4.09610      164.131 
4.30446e-05      1.30599      130.030 
7.82893e-05      3.41063      137.139 
5.67163e-05      4.24853      153.435 
5.73826e-05     0.948683      145.305 
7.21109e-05      2.79693      144.605 
-8.57995e-05     0.483735     -82.8750 
8.83286e-06      1.22589      174.382 
0.000109723      4.50564      163.496 
8.77617e-06      5.50963      156.692 
1.74043e-05     0.699714      120.964 
3.12492e-05      4.99632      150.767 
8.74114e-06      4.46430      158.723 
7.79167e-05      6.21691      154.259 
5.74997e-05      5.20500      170.936 
-6.24640e-05      4.32749      135.000 
0.000114943      5.62014      171.610 
3.26056e-05      4.09273      158.199 
2.44368e-05      3.61386      165.579 
2.49642e-05      1.22409      175.314 
-6.22780e-05      4.38894      176.342 
8.59355e-06      4.96145      150.542 
8.41825e-05      1.74264      148.134 
1.65873e-05      3.23790      173.972 
6.15852e-05      4.07082      172.945 
8.53592e-06      5.83020      156.337 
2.34706e-05     0.856037      127.405 
6.11814e-05      4.43842      158.870 
8.53035e-06      2.26177      158.199 
3.96717e-05      3.73406      168.570 
4.84299e-05      7.22241      146.750 
8.47497e-06      5.25456      144.919 
6.09806e-05      2.47718      158.199 
3.83902e-05      1.74471      151.966 
6.07937e-05      4.58955      149.636 
6.86088e-05      3.99059      151.894 
4.65554e-05      2.79235      144.033 
8.38197e-06      4.77007      162.933 
1.61138e-05      1.19549      162.474 
3.88034e-05      3.99665      144.162 
1.58488e-05      5.56723      158.504 
2.35059e-05      5.86849      143.872 
3.04630e-05      2.19545      156.938 
8.21090e-06     0.583095      174.094 
8.20450e-06      5.81188      156.258 
6.73761e-05     0.707107      118.740 
3.02718e-05      3.48126      151.521 
6.75259e-05      4.79642      139.736 
1.58489e-05      4.72479      162.255 
0.000104387      1.06827     -128.157 
5.25864e-05      3.64269      177.797 
6.88463e-05      1.32136      129.472 
1.53937e-05      5.69059      151.904 
2.35595e-05      5.36992      166.430 
1.52351e-05      3.89590      158.308 
8.00897e-06      4.11990      170.218 
1.54764e-05      4.78920      163.003 
2.34809e-05      5.79358      156.178 
4.48474e-05      3.15297      166.052 
2.99768e-05      4.37319      171.055 
1.57425e-05      4.45708      158.962 
2.95404e-05      3.95434      141.159 
5.97824e-05      1.21918      138.991 
1.55530e-05      3.99224      143.762 
2.99354e-05      6.09583      151.164 
5.14025e-05      1.14856      125.074 
7.89323e-06      5.30649      149.666 
4.42975e-05      1.22262      176.248 
7.89395e-06      4.11359      166.504 
2.27868e-05      5.17610      135.313 
2.98684e-05     0.373631      74.4759 
7.83728e-06      4.89351      134.338 
5.11569e-05      3.73936     -174.167 
4.40829e-05      4.10366      169.895 
2.23356e-05      4.98478      162.728 
4.33409e-05      5.77529      156.098 
4.39458e-05      3.25576      174.359 
2.92980e-05      4.73624      142.549 
3.69555e-05      5.79669      148.833 
3.65682e-05      4.08240      163.785 
2.21016e-05      6.10983      158.895 
5.81906e-05      5.20188      171.153 
7.67086e-06      5.08744      168.204 
4.36266e-05      4.89391      134.007 
7.62607e-06      4.66965      141.608 
7.56532e-06      3.23642      144.051 
2.86695e-05      5.21463      153.828 
4.33062e-05      1.57493      130.365 
2.15394e-05      5.65873      147.265 
1.46467e-05     0.280000     -90.0000 
-2.86751e-05      1.82888      174.352 
2.15922e-05      6.06422      142.639 
7.50429e-06      4.39609      170.838 
3.61711e-05      7.21146      146.883 
2.14728e-05      4.58170      155.225 
2.17387e-05      3.97839      160.927 
1.44173e-05      3.59450      165.500 
4.28760e-05     0.568859     -169.875 
2.84813e-05      4.66236      170.618 
2.13494e-05      4.81419      162.845 
7.35602e-06      5.75701      156.017 
1.43048e-05      3.49125      161.980 
2.12152e-05      1.05109      158.806 
1.42159e-05      4.25751      153.194 
1.42222e-05      4.65089      141.109 
2.86064e-05     0.617414      155.095 
7.29479e-06      5.29604      148.591 
7.29393e-06      4.00000      143.130 
2.81961e-05      1.21655     -170.538 
2.13479e-05      5.38936      166.479 
2.13700e-05      4.35344      171.014 
7.25012e-06      4.15480      156.150 
7.24976e-06      5.52800      156.774 
1.42127e-05     0.932309      144.605 
1.42358e-05      1.23240      138.289 
1.40319e-05      3.02655      150.725 
1.39729e-05      3.34216      141.072 
1.41463e-05      5.63454      164.138 
7.12990e-06      6.09843      158.652 
2.09974e-05      4.02443      131.373 
7.09849e-06      1.13225      162.525 
2.08283e-05      5.16190      135.157 
7.09472e-06      6.41049      150.876 
-2.09415e-05     0.592284     -11.6894 
7.05328e-06      3.94325     -177.675 
1.38702e-05      3.74977      168.930 
2.07876e-05      4.52482      163.568 
7.00872e-06      4.07416      158.094 
1.38991e-05      2.78065      144.367 
1.38188e-05      4.00410      143.531 
6.96354e-06      4.09566      167.593 
-6.95112e-06      2.66308     -165.651 
6.93837e-06      1.30874      128.797 
6.93416e-06     0.101980     -168.690 
-1.37338e-05      1.49893     -161.323 
-1.37302e-05      3.24500     -176.820 
6.92539e-06      2.55327      174.155 
6.90599e-06      3.36690      156.176 
6.89318e-06      1.30384      138.731 
6.88635e-06      4.10122      135.000 
6.84234e-06      5.70824      151.998 
6.80271e-06      5.09784      173.014 
