! Center RA: 11 59 31.83391,  Dec: +29 14 43.82678 (2000.0)
! Established model.
! Flux (Jy) Radius (mas)  Theta (deg)  Major FWHM (mas)  Axial ratio   Phi (deg) T \
! Freq (Hz)     SpecIndex
  0.697072      0.00000      0.00000 
 0.0812394    0.0200000      180.000 
0.00507534     0.216333     -33.6901 
0.00941792     0.233238     -30.9638 
 0.0282873     0.244131     -34.9920 
 0.0158851    0.0282843      135.000 
 0.0300259    0.0447214      153.435 
0.00308246     0.266833     -12.9946 
0.00731465     0.256125     -38.6598 
0.00838952     0.286356     -12.0948 
0.00805831     0.282843     -8.13010 
 0.0153142     0.269072     -41.9872 
0.00694263     0.300666     -3.81407 
0.00510171     0.364966      9.46232 
0.00467140     0.302655     -7.59464 
 0.0194866     0.282843     -45.0000 
0.00685601     0.388330      11.8887 
 0.0193020    0.0632456      161.565 
0.00395622     0.305941     -11.3099 
0.00147866     0.282843      8.13010 
0.00287333     0.407922      11.3099 
0.00447586     0.310483     -14.9314 
0.00132785     0.263059      8.74616 
0.00129211     0.427551      10.7843 
0.000644231     0.444072      7.76517 
0.00231442     0.247386      14.0362 
0.000736253     0.481664      4.76364 
0.000602086     0.243310      9.46232 
0.00117822     0.316228     -18.4349 
0.00225727     0.500400      2.29061 
0.000568105     0.431741      13.3925 
0.00162239     0.335261     -17.3540 
0.00205388     0.520000      0.00000 
0.000533975     0.417612      16.6992 
0.00494329     0.228035      15.2551 
0.00147937     0.436807      15.9454 
0.000505815     0.341760     -20.5560 
0.000489680     0.360555     -19.4400 
0.00459574     0.297321     -47.7263 
0.000476456     0.520384     -2.20260 
0.000934695     0.367696     -22.3801 
0.00174604     0.540370     -2.12110 
0.00171443     0.442719      18.4349 
0.000446367     0.386264     -21.2505 
 0.0115596    0.0824621      165.964 
0.000864553     0.635610      12.7244 
0.000436351     0.329848     -14.0362 
0.000424180     0.393954     -23.9625 
0.00159988     0.541479     -4.23639 
0.000414379     0.640312      14.4703 
0.00149666     0.655134      12.3391 
0.00116120     0.412311     -22.8337 
0.00269700     0.659697      14.0362 
0.00487754     0.208806      16.6992 
0.00109681     0.430813      21.8014 
0.000366978     0.543323     -6.34019 
0.00273538     0.284253     -50.7106 
0.000705986     0.561427     -4.08562 
0.000690586     0.430813     -21.8014 
0.000339290     0.560000      0.00000 
0.00127809     0.412311      22.8337 
0.000334003     0.545894     -8.42697 
0.000332905     0.256125     -51.3402 
0.000643800     0.420476     -25.3462 
0.00180816     0.565685     -8.13010 
0.000633093     0.661211      3.46823 
0.000595058     0.438634     -24.2277 
0.000878351     0.681175      3.36646 
0.000297048     0.200000     -53.1301 
0.00182825     0.402492      26.5651 
0.00132191     0.429418     -27.7585 
0.00103189     0.664831      15.7086 
0.000799900     0.701142      3.27049 
0.000272765     0.188680     -57.9946 
0.000523369     0.560357      2.04541 
0.00101917     0.568859     -10.1247 
0.00115028     0.161245     -60.2551 
0.00194730     0.684105      15.2551 
0.000248391     0.721110      3.17983 
0.00135942     0.720278      1.59114 
0.00237712     0.312410     -50.1944 
0.00205359     0.447214     -26.5651 
0.00128047     0.588558     -9.78241 
0.000451431     0.411825      29.0546 
0.000226813     0.540370      2.12110 
0.00170652     0.394462      30.4655 
0.00134782     0.590593      28.3008 
0.00190718     0.215407      21.8014 
0.000584899     0.520384      2.20260 
0.00230567     0.740270      1.54816 
0.000747956     0.100000      180.000 
0.00202516     0.196977      23.9625 
0.000843740     0.152315     -66.8014 
0.000363472     0.703420      14.8265 
0.00102118     0.608276     -9.46232 
0.00112075    0.0894427      153.435 
0.00160387     0.465188     -25.4633 
0.00118462     0.501597      4.57392 
0.000169012     0.747262      15.5241 
0.000166818     0.101980     -168.690 
0.000166686     0.439090     -30.0686 
0.00154833     0.600333      29.9816 
0.000621027     0.377359      32.0054 
0.000163073     0.766551      15.1240 
0.00170688     0.760263      1.50744 
0.000161090     0.107703     -158.199 
0.000309096     0.785875      14.7436 
0.00201678     0.340588     -49.7636 
0.00107182     0.100000     -143.130 
0.000148867     0.628013     -9.16235 
0.000692524     0.829699      15.3763 
0.000413385     0.611882     -11.3099 
0.000413781     0.404969      32.9052 
0.00242288    0.0848528      135.000 
0.00163412     0.388330      34.5085 
0.000906357     0.145602     -74.0546 
0.000127801     0.647765     -8.88066 
0.000901809     0.848999      15.0184 
0.000123330     0.631506     -10.9541 
0.000793432     0.780256      1.46880 
0.000770204     0.483322     -24.4440 
0.000227205     0.651153     -10.6197 
0.000114445     0.667533     -8.61565 
0.00118587     0.116619     -149.036 
0.000221578     0.583095      30.9638 
0.000108074     0.900888      2.54480 
0.000395563     0.610574      31.6075 
0.000105614     0.670820     -10.3048 
0.000388558     0.493964     -21.3706 
0.000204112     0.920869      2.48955 
0.000102845     0.573062      29.2488 
0.000199349     0.690507     -10.0080 
0.000371253     0.940851      2.43665 
0.000683206     0.868332      14.6764 
0.000272401     0.710211     -9.72758 
0.000722134     0.328024     -52.4314 
0.000335933     0.474131     -27.6460 
0.000747603     0.545894      28.4429 
0.000343554     0.655134      31.2637 
0.000254468     0.645601      16.1892 
0.000476910     0.372022      36.2538 
0.000482895     0.960833      2.38594 
8.56954e-05     0.557853     -14.5345 
0.000387600     0.729931     -9.46232 
0.000236762     0.524976     -17.7447 
0.000404224     0.449444     -32.2756 
7.83291e-05     0.672309      30.3791 
0.000150596     0.699714      30.9638 
0.000468410     0.466476     -30.9638 
0.000115809     0.100000      143.130 
7.32385e-05     0.980204      1.16914 
7.30798e-05     0.356090     -51.8428 
0.000773472     0.631506      10.9541 
0.000120981     0.583095      22.1663 
0.000347260     0.647765      8.88066 
0.000232148     0.572713      24.7751 
0.000919635     0.286356      12.0948 
0.000939048     0.456070     -15.2551 
0.000667306     0.664831      6.91123 
0.000311704     0.784092     -5.85601 
0.000406387     0.353836      42.7094 
0.000480156     0.432666     -33.6901 
0.000197887     0.854400      16.3139 
0.000364361     0.684690      6.70984 
0.000459022     0.121655     -99.4623 
0.00103627    0.0894427      116.565 
0.000532497     0.786384     -7.30576 
9.54194e-05     0.905538      6.34019 
0.000496857     0.538516      31.3287 
0.000670380     0.860233      17.5924 
0.00148012     0.339411      45.0000 
9.12224e-05     0.925419      6.20345 
0.000404156     0.923472      4.96974 
8.65326e-05     0.353836     -47.2906 
0.000743276     0.676757      34.1597 
0.00164345     0.116619     -120.964 
8.13795e-05     0.781025     -13.3245 
0.000426101     0.948472      24.9439 
0.000480100     0.766551     -15.1240 
0.000219812     0.532541      34.2869 
0.000725849     0.806226     -7.12502 
0.000263325     0.943398      4.86451 
0.000259757     0.484149      51.7098 
0.000689788     0.344093     -54.4623 
0.000240468     0.803990     -5.71059 
0.000128682      1.04173     -3.30187 
0.00116279     0.100000      126.870 
0.000746189     0.291204     -15.9454 
0.000723594     0.966644      24.4440 
0.000519251     0.305941      11.3099 
0.000918902      1.06170     -3.23970 
0.000366528     0.477074      56.9761 
0.000115357     0.785875     -14.7436 
0.000108652     0.945304      6.07246 
0.000437761     0.866487      18.8532 
0.000620905     0.483735     -29.7449 
0.000500354     0.772010     -16.5571 
0.000140617     0.480833     -16.9275 
5.24529e-05     0.466476      59.0362 
0.000150598     0.632456      18.4349 
0.000200515     0.704557      34.5923 
5.06772e-05     0.417612      73.3008 
0.000120349     0.613514      19.0256 
0.000265559     0.412311      75.9638 
0.000249664     0.965194      5.94686 
0.000641788     0.688186      35.5377 
7.97771e-05     0.521536      32.4712 
0.000189333     0.626418      16.6992 
0.000265775     0.488262      55.0080 
0.000420372     0.332866     -57.2648 
0.000215636     0.407922      78.6901 
0.000412605     0.116619      149.036 
0.000150935     0.475395     -14.6209 
0.000303802     0.791202     -16.1443 
3.56708e-05     0.879318      17.1985 
0.000389895     0.975090      25.5139 
0.000116574     0.644981      7.12502 
0.000190127     0.985089      5.82634 
0.000481283     0.128062     -128.660 
0.000226836     0.113137      135.000 
0.000437325      1.14543      12.0948 
0.000346574     0.404475      81.4692 
0.000450965      1.08167     -3.17983 
0.000313386      1.64012      15.5615 
0.000355908     0.924554      38.8534 
0.000308148      1.46697      11.0035 
7.21940e-05     0.777946     -17.9691 
0.000110595     0.500000      53.1301 
0.000225787     0.493964     -31.7595 
0.000295397     0.377359      147.995 
0.000188092     0.662722      5.19443 
5.94063e-05     0.477074     -33.0239 
0.000194578     0.796994     -17.5256 
0.000112198     0.909065      39.6442 
0.000152512     0.360555     -56.3099 
0.000393262     0.401995      84.2894 
0.000374564      1.48661      10.8564 
0.000186644     0.384708      152.103 
9.72145e-05      1.65940      15.3763 
0.000327841     0.398497     -162.474 
0.000166859      1.64560      16.2323 
0.000176990     0.126491     -108.435 
0.000228183     0.504777      56.3099 
0.000455628      1.02528     -20.5560 
3.12060e-05     0.349857     -59.0362 
0.000200264     0.325576      42.5104 
0.000178859      1.00499      5.71059 
0.000119772      1.66012      21.9296 
0.000116140     0.367151     -60.6422 
8.10149e-05     0.993177      25.0169 
0.000111029     0.394462      149.534 
-0.000831317    0.0632456     -18.4349 
-0.000390370     0.247386      104.036 
-0.000373543      1.32015     0.868051 
5.91038e-05     0.828734     -8.32565 
0.000249573     0.272029     -17.1027 
8.79045e-05     0.291204      15.9454 
0.000112232      1.09836     -10.4915 
0.000128714      1.14978      13.0693 
0.000177191     0.400500      87.1376 
9.63397e-05      1.67869      21.6747 
7.57860e-05     0.377359     -57.9946 
1.05048e-05     0.488262     -34.9920 
-0.000522147    0.0447214     -26.5651 
-0.000283926     0.228035      105.255 
0.000182182     0.252982     -18.4349 
3.69723e-05     0.831865     -9.68879 
3.60309e-05     0.472017     -36.3844 
3.51216e-05     0.272029      17.1027 
3.42970e-05     0.325576      47.4896 
-4.19127e-05      1.28561     -5.35582 
