! Center RA: 02 38 38.93011,  Dec: +16 36 59.27450 (2000.0)
! Established model.
! Flux (Jy) Radius (mas)  Theta (deg)  Major FWHM (mas)  Axial ratio   Phi (deg) T \
! Freq (Hz)     SpecIndex
  0.281348      0.00000      0.00000 
 0.0239250    0.0200000      0.00000 
 0.0196696    0.0282843      45.0000 
0.000500841    0.0447214      26.5651 
0.000493666     0.234094      19.9831 
0.000949826     0.252982      18.4349 
0.00133856     0.272029      17.1027 
0.00288975    0.0200000      180.000 
0.00125026     0.297321      19.6538 
0.00227007     0.316228      18.4349 
0.00314027    0.0400000      180.000 
0.00228952     0.335261      17.3540 
0.000931168     0.329848      14.0362 
0.00289059    0.0600000      180.000 
0.00164255     0.354401      16.3895 
0.00332728     0.349285      13.2405 
0.00170939    0.0632456     -161.565 
0.000258060     0.184391      49.3987 
0.000958199     0.284253      50.7106 
0.00105094    0.0800000      180.000 
0.00107626     0.300000      53.1301 
0.00139569    0.0824621     -165.964 
0.000206907     0.134164      63.4349 
0.000953588     0.312410      50.1944 
0.000556184     0.134164     -26.5651 
0.000184510     0.345254      10.0080 
0.000353174     0.100000      180.000 
0.000522190     0.373631      15.5241 
0.000178944     0.101980      78.6901 
0.00197265     0.328024      52.4314 
0.000492432     0.368782      12.5288 
0.00104100     0.100000      90.0000 
0.000483701     0.152315     -23.1986 
0.00135476     0.101980     -168.690 
0.000883871     0.398497      17.5256 
0.000284224     0.342345      6.70984 
0.00140661     0.128062     -38.6598 
0.000393829     0.320624      3.57633 
0.000624008     0.404969      20.2249 
0.000131839     0.120000      180.000 
0.00133545     0.121655     -170.538 
0.000584796     0.340588      49.7636 
0.000947979     0.101980      101.310 
0.000650249     0.340588      3.36646 
0.000828074     0.423792      19.2900 
0.000993392     0.356090      51.8428 
0.000363345     0.412311      22.8337 
0.000687052     0.509902      64.4400 
0.000666521     0.360555      3.17983 
0.000662808     0.141421     -171.870 
0.000173666     0.113137     -45.0000 
0.000392213     0.107703      111.801 
8.35716e-05     0.353836      47.2906 
0.00146122     0.430813      21.8014 
8.25712e-05     0.128062     -51.3402 
0.000445445     0.116619     -59.0362 
0.000417562     0.368782      49.3987 
0.00230308     0.528015      65.3764 
0.000276353     0.113137      135.000 
0.000519421     0.380526      3.01279 
0.000390855     0.126491     -161.565 
0.000426760     0.107703     -68.1986 
0.000308316     0.382099      47.1211 
0.000782573     0.128062      141.340 
5.86568e-05     0.425206      41.1859 
0.000218817     0.401995      5.71059 
0.000159604     0.145602     -164.055 
0.000106289     0.456070      37.8750 
0.000561347     0.495177     -43.3634 
0.000300525     0.101980     -78.6901 
5.36858e-05     0.440454      39.4725 
0.000194580     0.495177     -46.6366 
0.000194597     0.116619     -149.036 
0.000535190     0.400500      2.86241 
0.000289318     0.500000      36.8699 
0.000359453     0.442719      18.4349 
0.000168707     0.100000     -90.0000 
0.000500573     0.134164     -153.435 
0.000155030     0.116619      120.964 
0.000524436     0.509117     -45.0000 
0.000160008     0.360555      56.3099 
0.000158605     0.635295      61.8214 
4.15975e-05     0.152315      156.801 
0.000375295     0.516140      35.5377 
0.000151800     0.144222      146.310 
0.000318492     0.349857      59.0362 
0.000112241     0.121655     -80.5377 
0.000223029     0.170880      159.444 
0.000257907     0.652993      62.6501 
0.000219201     0.141421     -81.8699 
0.000271627     0.501597      66.5014 
0.000181829     0.449444      20.8545 
0.000145687     0.532541      34.2869 
9.21371e-05     0.121655      99.4623 
0.000150698     0.420476      2.72631 
2.83508e-05     0.113137     -135.000 
0.000713022     0.172047     -125.538 
0.000183591     0.410366      46.9749 
0.000270689     0.395980      45.0000 
0.000698438     0.440454      2.60256 
7.04908e-05     0.188680      57.9946 
0.000699084     0.184391     -130.601 
0.000208508     0.689638      60.4612 
3.31564e-05     0.453431      41.4237 
0.000282657     0.152315      66.8014 
3.18384e-05     0.468615      39.8056 
0.000137147     0.440000      0.00000 
0.000243147     0.493964      68.6294 
0.000389169     0.716938      59.8586 
2.52656e-05     0.491935     -26.5651 
7.11607e-05     0.538516      31.3287 
0.000410398     0.145602      74.0546 
0.000349911     0.509902     -25.5600 
0.000129399     0.302655      172.405 
8.25907e-05     0.555698      30.2564 
2.15216e-05     0.384187      51.3402 
0.000111627     0.460435      2.48955 
0.000182286     0.950789      67.7510 
0.000130894     0.487032      19.1790 
0.000120598     0.322490      172.875 
3.66663e-05     0.372022      53.7462 
0.000257953     0.197990     -135.000 
5.25511e-05     0.573062      29.2488 
4.95001e-05     0.468188      70.0169 
7.34089e-05     0.590593      28.3008 
0.000350995     0.538145     -41.9872 
0.000231430     0.460000      0.00000 
0.000318116     0.969330      68.1986 
7.09067e-05     0.461736      72.3499 
9.20649e-05     0.342345      173.290 
0.000296201     0.491935      153.435 
9.30643e-05     0.520000     -22.6199 
9.05076e-05     0.608276      27.4076 
4.80482e-05     0.456070      74.7449 
0.000110952     0.212603     -138.814 
0.000165477     0.451221      77.1957 
7.17481e-05     0.362215      173.660 
3.40558e-05     0.505964      18.4349 
7.87453e-05     0.538517     -21.8014 
6.53669e-05     0.626099      26.5651 
6.86114e-05     0.920217      42.3575 
3.86783e-05     0.260768     -147.529 
2.22200e-05     0.707107      61.2602 
7.01122e-05     0.544059     -72.8973 
-0.000135223     0.121655      9.46232 
2.72644e-05     0.382099      173.991 
-6.70097e-05     0.860930      30.7355 
3.28292e-05     0.935094      41.5318 
1.96464e-05     0.644050      25.7693 
-6.34846e-06     0.850882      29.5778 
