! Center RA: 13 10 28.66385,  Dec: +32 20 43.78277 (2000.0)
! Established model.
! Flux (Jy) Radius (mas)  Theta (deg)  Major FWHM (mas)  Axial ratio   Phi (deg) T \
! Freq (Hz)     SpecIndex
  0.240470      0.00000      0.00000 
 0.0410237    0.0282843      135.000 
 0.0138489    0.0447214     -63.4349 
 0.0419421    0.0721110     -56.3099 
 0.0533236    0.0565685      135.000 
 0.0151770     0.100000     -53.1301 
 0.0435496    0.0894427     -63.4349 
  0.106805    0.0721110      123.690 
 0.0739945     0.116619     -59.0362 
 0.0269551     0.107703     -68.1986 
 0.0563766     0.100000      126.870 
0.00519078     0.134164     -63.4349 
 0.0218759     0.126491     -71.5651 
 0.0108620    0.0894427      116.565 
0.000785040    0.0632456      108.435 
0.00149764     0.128062     -51.3402 
0.00370413     0.121655     -80.5377 
0.00608971     0.144222     -33.6901 
0.00125401     0.243310     -80.5377 
0.00678001     0.263059     -81.2538 
0.00474388     0.140000     -90.0000 
0.00234402     0.120000     -90.0000 
0.00230036     0.161245     -29.7449 
0.00342730     0.152315     -23.1986 
0.00417478     0.260768     -85.6013 
0.00768218     0.121655     -99.4623 
0.00652488     0.170880     -20.5560 
0.000944545     0.282843     -81.8699 
0.00642492     0.280713     -85.9144 
0.00405379     0.113137      135.000 
0.00254883     0.312410     -50.1944 
0.00187152     0.404475     -81.4692 
0.00113837     0.189737     -18.4349 
0.00118677     0.128062      141.340 
0.00470517     0.126491     -108.435 
0.000170809     0.401995     -84.2894 
0.00171832     0.420476     -87.2737 
0.00278741     0.172047      144.462 
0.000205362     0.280000     -90.0000 
0.00315453     0.184391     -12.5288 
0.00244762     0.325576     -47.4896 
0.000742082     0.340588     -130.236 
0.00147208     0.353836     -132.709 
-0.00566027    0.0824621     -165.964 
0.000665500     0.440454     -92.6026 
0.000837787     0.144222      146.310 
0.000196486     0.407922     -78.6901 
 0.0122563     0.161245      150.255 
0.00115651     0.441814     -95.1944 
0.000687211     0.178885     -26.5651 
0.00197860    0.0848528      45.0000 
-0.00991974    0.0632456     -161.565 
0.000405749     0.398497     -72.4744 
0.000434806     0.305941     -78.6901 
-0.00110837      1.34536     -78.8571 
0.000235452     0.328024     -52.4314 
0.000419957     0.181108     -6.34019 
0.000361729     0.107703      21.8014 
7.60007e-05     0.302655     -82.4054 
-0.000591063     0.164924      104.036 
0.000360639     0.444072     -97.7652 
0.00160257     0.313050     -63.4349 
0.00100981     0.156205     -39.8056 
0.000203708     0.316228     -71.5651 
0.000169559     0.392938     -75.2564 
0.000788726      3.10664     -55.4915 
0.000104757     0.310483     -75.0686 
0.000147584     0.316228     -55.3048 
0.00104151      1.37884     -66.0375 
0.000317993     0.203961     -11.3099 
9.26721e-05     0.611882     -78.6901 
0.000137186      3.11801     -55.1886 
0.000744814      2.91781     -56.7456 
-0.00150617     0.161245      82.8750 
0.000540225     0.608276     -80.5377 
0.000156041      3.35726     -54.7004 
0.000542664      3.53927     -55.5915 
0.000316847     0.200998     -5.71059 
0.000191620     0.655134     -58.7363 
0.000283638     0.280713     -94.0856 
7.38558e-05      2.96142     -48.5593 
0.000944778      1.39270     -54.9406 
0.000603506     0.648999     -56.3099 
0.000621396     0.282843     -98.1301 
0.000367594      1.30981     -97.0165 
0.000593643      2.69474     -65.9080 
0.000135370     0.141421     -45.0000 
0.000393176      2.94822     -48.8506 
3.37697e-05     0.447214     -100.305 
9.20178e-05      3.36886     -54.4228 
0.000217466     0.322490     -119.745 
0.000199555      1.25634     -76.1850 
0.000152408     0.180000      0.00000 
-0.00103473     0.468615     -129.806 
0.000976417     0.100000     -90.0000 
0.000198284      1.64000     -77.3196 
-0.000972996     0.170880      110.556 
5.89653e-05      1.11571     -75.4655 
0.000110696     0.451221     -102.804 
8.71151e-05     0.161245      7.12502 
8.46425e-05     0.141421      8.13010 
0.000187582      1.14769     -67.4569 
-0.000391183      2.93973     -59.7716 
2.78261e-05     0.300666     -86.1859 
0.000333630      1.11086     -76.4641 
7.85508e-05      3.38053     -54.1471 
0.00110703     0.101980     -101.310 
-0.00534663    0.0600000      180.000 
0.000529210     0.100000      36.8699 
0.000302005      3.08603     -51.0502 
0.000189265      1.64451     -76.6398 
0.000160587     0.332866     -122.735 
0.000250138      3.55061     -55.3253 
6.99299e-05     0.456070     -105.255 
0.000115099     0.841190     -108.004 
-0.00353371     0.205913     -119.055 
-0.000713388     0.178885      116.565 
0.000245823     0.300000     -90.0000 
4.66073e-05      3.09864     -50.7626 
0.000213674      3.13465     -49.3987 
2.23347e-05      3.39229     -53.8733 
0.000260649     0.622896     -84.4725 
6.14037e-05      1.38708     -65.2826 
0.000143915     0.660303     -54.8658 
2.11621e-05      3.11133     -50.4774 
0.000984169     0.107703     -111.801 
0.000282324      2.56281     -55.8139 
7.23850e-05      1.64924     -75.9638 
0.00122501     0.286356     -102.095 
7.35276e-05      3.09535     -55.7965 
0.000222185      1.64560     -73.7677 
0.000113922     0.835225     -106.699 
0.000556522      2.67649     -65.7332 
0.000490003      1.22589     -84.3824 
3.82777e-05      3.26741     -56.9908 
6.69175e-05      3.12167     -62.9424 
-0.000483915      2.48652     -63.2288 
0.000261682     0.992975     -108.800 
3.68098e-05      2.93510     -49.1446 
4.45213e-05      1.25172     -77.0740 
-0.000676428     0.188680      122.005 
0.000216353      1.65130     -73.1014 
6.90088e-05      3.13694     -49.9138 
8.75713e-05     0.461736     -107.650 
0.000162994      1.46997     -75.0184 
-0.000195472      3.49857     -59.0362 
0.000261727      1.36894     -64.9325 
-8.52443e-05     0.840238     -88.6361 
0.000232982      3.57754     -59.4208 
-0.000372305      1.34164     -79.6952 
0.00291232     0.116619     -120.964 
7.89189e-05      3.25656     -57.2859 
0.000111134      2.55163     -56.1854 
-0.000423824      1.64754     -56.8887 
0.000568865      1.12588     -77.6920 
9.35181e-05     0.805233     -104.381 
1.65518e-05      2.90689     -57.0753 
-0.000536439     0.295296     -28.3008 
-0.000456400     0.860233     -88.6678 
0.000181033      3.76436     -52.3386 
0.000377599     0.551725     -46.4688 
0.000150726      1.63719     -64.6871 
-0.000367248     0.600333     -119.982 
0.000138135      3.14770     -49.1223 
0.000116803     0.468188     -109.983 
-0.000374776      1.53375     -77.9574 
0.000139282      1.64584     -64.0577 
-0.000653816     0.200000      126.870 
0.000462517     0.134164     -26.5651 
0.000211743      2.39908     -61.0846 
-0.000417475     0.156205      50.1944 
6.27313e-05     0.945304     -96.0725 
-9.56627e-05      1.40812     -101.470 
0.000249710      1.44554     -75.5792 
0.000118328     0.800500     -102.995 
6.16544e-05      3.58987     -54.9818 
0.000323259     0.986712     -107.700 
-0.000872157     0.286356     -24.7751 
0.000394581     0.128062     -128.660 
-2.60822e-05     0.208806     -73.3008 
4.89781e-05      3.24580     -57.5830 
-0.000270380      1.20599     -95.7106 
-0.000819852     0.189737     -71.5651 
0.000546331    0.0721110      56.3099 
1.24496e-05      2.88617     -50.9061 
9.61351e-05      3.71656     -55.9679 
0.000149108      1.37753     -64.1790 
-0.000357722      1.24065     -69.2277 
-5.40018e-05      2.92246     -59.5742 
7.43267e-05      2.87360     -51.2156 
7.90661e-05      3.35201     -50.3257 
0.000181852     0.475395     -112.249 
8.73738e-05      3.23512     -57.8820 
6.92227e-05      2.72360     -56.0765 
0.000331079      1.24403     -85.3894 
5.88223e-05      1.64012     -74.4385 
-0.000489770     0.212603      131.186 
-0.000141854      3.62491     -61.3139 
0.000217484      2.38948     -61.5044 
3.81122e-05     0.621289     -86.3086 
-7.64717e-05      2.49560     -62.8189 
-0.000275674      1.05224     -98.7462 
5.08765e-05      3.60139     -54.7212 
8.85578e-05     0.796241     -101.592 
9.54720e-06      1.31240     -97.8831 
-0.000105092     0.506360     -80.9097 
-7.53682e-05      1.65215     -83.0470 
-0.000150487      2.50320     -67.9436 
0.000124837      1.44069     -76.3496 
9.16801e-05      3.82256     -55.2290 
-8.96401e-06      2.48709     -62.1985 
5.89833e-05     0.740000     -90.0000 
-5.74760e-05      2.75427     -58.9649 
2.53077e-05      3.59828     -51.0915 
0.000138412     0.980816     -106.587 
-9.82753e-05      2.49648     -61.7925 
6.48789e-05      1.63487     -75.1137 
4.88190e-05      2.71249     -56.4271 
-6.31704e-05      1.20416     -57.8937 
4.69037e-05      3.22453     -58.1830 
3.11300e-05     0.638122     -57.8043 
-6.93359e-05      1.20416     -94.7636 
-4.67258e-05     0.503587     -83.1572 
2.31468e-05      1.66385     -64.3590 
1.52946e-05     0.792464     -100.176 
1.52781e-05      3.38018     -50.2812 
-1.54633e-05      2.52539     -60.5928 
-3.04075e-05     0.860930     -87.3370 
-3.01327e-05      3.42286     -55.4742 
7.64472e-06      3.61087     -50.8446 
1.50568e-05      1.15551     -66.5410 
7.62341e-06      1.49907     -103.109 
2.25235e-05      1.14978     -103.069 
1.51830e-05     0.761052     -93.0128 
7.58975e-06     0.947629     -97.2750 
7.41023e-06      1.62985     -75.7932 
7.40328e-06      1.44361     -79.6242 
-7.39607e-06      3.24099     -54.5445 
