! Center RA: 16 42 58.80997,  Dec: +39 48 36.99402 (2000.0)
! Tentative model.
! Flux (Jy) Radius (mas)  Theta (deg)  Major FWHM (mas)  Axial ratio   Phi (deg) T \
! Freq (Hz)     SpecIndex
 0.0328142     0.101980     -101.310 
 0.0112368      2.05232     -105.255 
0.00245681      2.03843     -105.945 
0.00179160     0.121655     -99.4623 
0.00357912      2.05767     -105.792 
0.00104650     0.180000     -90.0000 
0.00229056    0.0824621     -104.036 
0.000755997      2.07162     -105.110 
0.00136623     0.200000     -90.0000 
0.000882791      2.00569     -106.809 
0.00140144      2.08586     -104.436 
0.00185645      1.98655     -106.975 
0.00305767    0.0600000     -90.0000 
0.00164176     0.220000     -90.0000 
0.00150595      2.10523     -104.300 
0.000772171     0.220907     -95.1944 
0.000437692      1.97342     -107.700 
0.00221399      1.96743     -107.146 
9.98996e-05    0.0632456     -71.5651 
9.95262e-05     0.243310     -99.4623 
9.77751e-05    0.0721110     -33.6901 
0.000283310     0.247386     -104.036 
0.000713352      2.11981     -103.643 
-0.00223203     0.784092     -84.1440 
0.000587466     0.101980     -11.3099 
8.93633e-05     0.325576     -100.620 
0.000332557     0.342345     -96.7098 
0.000235960      2.12462     -104.167 
0.000716605     0.345254     -100.008 
7.58764e-05     0.252982     -108.435 
0.000355755      2.13925     -103.517 
0.000279484     0.220907     -84.8056 
7.38677e-05      2.09990     -107.745 
0.00118147     0.120000      0.00000 
7.01407e-05      2.10609     -108.263 
0.000133824     0.260000     -112.620 
0.000131170      2.12509     -108.094 
0.000308771      2.15870     -103.392 
0.000233367      2.13138     -108.605 
6.21347e-05     0.200998     -84.2894 
0.000564676      2.26106     -105.388 
0.000169799     0.250599     -118.610 
0.000413240     0.223607     -79.6952 
-0.000745422     0.660000     -90.0000 
0.000211523      2.13467     -102.995 
0.000471758     0.362215     -96.3402 
0.000334648      2.11244     -108.778 
0.000334197     0.260768     -122.471 
9.60401e-05      2.11073     -102.588 
4.57228e-05      2.08691     -102.171 
0.000560483     0.140000      0.00000 
0.000166896      2.13785     -109.113 
-0.000246770     0.782304     -85.6013 
4.42835e-05      2.15416     -102.875 
4.38253e-05      2.06320     -101.746 
0.000423675     0.228035     -74.7449 
0.000271202      2.05922     -101.201 
0.000897016     0.364966     -99.4623 
0.000191237      2.17366     -102.758 
-0.00175296     0.640312     -91.7899 
0.000153514      2.26645     -105.876 
0.00135506     0.161245      97.1250 
0.000209199    0.0894427     -116.565 
-0.000451228     0.803990     -84.2894 
0.000674468      2.11896     -109.290 
3.47917e-05      2.28569     -105.739 
0.000189042      2.05543     -100.654 
0.000266505      2.29120     -106.220 
0.000208308      2.16933     -102.242 
3.27858e-05      2.14448     -109.618 
-0.00208513     0.100000      143.130 
0.000144938     0.272029     -126.027 
0.000752867    0.0632456     -108.435 
0.000846417      1.42056     -91.6135 
0.000293285      2.03578     -100.758 
-0.000380697      9.38256     -70.0586 
-0.00116107      1.55859     -98.8580 
0.000259732      9.18958     -81.9933 
0.000400195      8.95850     -67.5572 
0.000257041      2.45552     -110.501 
7.39440e-05     0.252982     -71.5651 
9.75323e-05      1.93680     -106.189 
7.35042e-05     0.277849     -120.256 
4.84888e-05      2.18477     -101.619 
-2.51087e-05      3.52919     -71.1543 
-0.000117500      6.36116     -82.0482 
-0.000464050      3.55460     -70.9534 
9.32733e-05      2.12565     -109.799 
0.000175128      2.22315     -98.2759 
-0.000230860      4.80054     -80.8909 
-0.000286093      7.59055     -77.8314 
8.95009e-05      6.59096     -93.3052 
0.000229231      3.13081     -72.1438 
0.000284330      1.07703     -105.068 
3.38339e-05     0.341760     -69.4440 
0.000198723      6.53483     -93.8607 
-0.000220361     0.802247     -85.7108 
-0.000186064      5.67634     -74.8865 
-0.000301170      1.33522     -106.535 
-0.000127348      7.95661     -65.4964 
-0.000438385      6.36396     -81.8699 
0.000208394     0.288444     -123.690 
0.000170477     0.349285     -66.3706 
0.000167124      1.97363     -109.537 
-0.000216813      1.68808     -103.707 
-2.18357e-05      4.04500     -69.1455 
0.000494189      8.73490     -84.8768 
0.000559630      9.71656     -75.3345 
0.000440510      3.26956     -76.5588 
0.000372707      1.93132     -105.619 
-0.000395881      4.62156     -88.5121 
-0.000489376      4.01920     -69.3105 
-0.000448643      3.53638     -76.5925 
-0.000192097     0.947629     -82.7250 
-0.000288701      2.82418     -74.3890 
-6.14742e-05      5.49607     -71.7628 
0.000640133      8.31173     -68.2498 
-2.08190e-05      9.56414     -70.5799 
-0.000195015      6.04788     -84.4968 
0.000331806      2.03214     -100.204 
-0.000539690      9.53864     -70.6533 
5.98675e-05      1.08683     -102.758 
0.000499383      5.97086     -70.8368 
0.000510266      2.46260     -110.937 
-2.01539e-05      6.25156     -93.4849 
0.000131130      5.70126     -91.2060 
-0.000431915      6.25038     -93.3019 
0.000112292      2.16518     -101.725 
0.000102718      6.58984     -93.1316 
0.000298906     0.349285     -103.241 
0.000237970      9.04896     -84.0374 
0.000278112    0.0721110     -123.690 
0.000266460      2.23759     -97.1885 
0.000504947      1.09142     -103.782 
-0.000210611      5.17397     -94.2119 
-0.000158354      7.97481     -65.5560 
-0.000321372      5.52134     -71.6307 
-0.000234329      8.56647     -75.6718 
-0.000373421      6.38840     -76.0508 
1.85205e-05      5.34509     -70.5481 
0.000389176      5.36395     -70.6192 
0.000813391     0.164924      104.036 
-0.000238926     0.652993     -62.6501 
-0.000107060      5.68158     -74.6918 
0.000180619     0.323110     -68.1986 
-0.000145330      8.88167     -76.0576 
-0.000273959      2.50647     -94.1182 
0.000159097      9.20663     -82.1339 
-6.39252e-05      9.00618     -71.4846 
0.000330852      3.14986     -72.2553 
0.000347307      5.70088     -91.0051 
-0.000298974      7.96656     -65.6870 
-0.000175718      1.70751     -103.548 
-1.68704e-05      2.81780     -99.3955 
-0.000334478      7.59479     -77.6839 
-0.000103166      9.70948     -72.4981 
-0.000102239      4.82029     -80.9285 
-0.000177057     0.550273     -109.093 
-0.000173743      2.98168     -88.0780 
-0.000302463      2.82113     -99.7962 
0.000249589      3.75047     -85.7185 
-4.39099e-05      7.69592     -79.2157 
-0.000101122      4.98016     -90.4602 
-0.000267225      9.24245     -74.8210 
0.000316486      6.24871     -71.3331 
-0.000340781      5.16426     -65.5193 
6.14581e-05      4.23962     -76.3571 
-5.90374e-05      5.68577     -82.7250 
-0.000113768      5.82409     -74.0546 
0.000322065      6.87034     -64.4793 
-2.97386e-05      7.30090     -75.2405 
-0.000692022     0.113137      135.000 
0.000415069    0.0447214     -116.565 
0.000365553      3.07766     -98.9726 
6.90952e-05      1.98040     -110.082 
-7.06529e-05      1.32966     -105.709 
-9.58784e-05      7.46298     -71.5651 
-5.76107e-05      9.85692     -76.3867 
-0.000209049      2.28674     -78.3952 
-0.000198118      6.67563     -66.8916 
4.29170e-05      3.75201     -85.4139 
0.000142459      5.16085     -71.7055 
0.000253900      4.22019     -76.2930 
0.000100690      6.12944     -65.1073 
0.000295201      1.44056     -91.5911 
6.61353e-05     0.295296     -118.301 
-0.000185598      7.30602     -75.0888 
0.000137969      9.64660     -69.2354 
-9.86990e-05      6.04599     -84.6855 
0.000167827     0.100000      0.00000 
0.000112235      8.40431     -80.9636 
-4.12014e-05      4.19338     -102.114 
0.000106294      9.28054     -82.4462 
-6.63433e-05      7.03628     -80.5109 
-0.000154169      9.24164     -78.0092 
-0.000159796      8.88651     -75.9325 
-0.000281970      5.28394     -82.6060 
-7.16254e-05      8.99984     -71.6053 
-7.63218e-05      7.44269     -88.4602 
0.000290600     0.472017     -143.616 
7.38414e-05      4.21474     -97.3611 
-0.000207374      9.85223     -76.4997 
5.37249e-05      8.72495     -77.5567 
-0.000143461      8.65203     -71.3975 
0.000148800      8.94002     -67.5083 
-1.35242e-05     0.967471     -82.8750 
3.88711e-05      6.58878     -92.9579 
-6.32473e-05      4.21587     -69.1576 
0.000243402      2.86698     -85.9998 
-0.000119311      5.71090     -78.6901 
0.000207418      6.47222     -79.3151 
-9.78157e-05      8.40831     -77.2199 
-0.000114452      9.38940     -69.9439 
-0.000228260      2.98107     -88.4622 
-3.82831e-05      4.62108     -88.7600 
-4.98086e-05      1.32439     -104.876 
0.000342976      8.74448     -77.5849 
-0.000161144      4.18922     -101.846 
-0.000142204      5.04829     -78.1113 
-0.000242492      5.84332     -74.1085 
-2.50648e-05      8.16502     -71.4319 
-0.000137312      7.20178     -91.2730 
9.50680e-05      9.85629     -72.8887 
0.000208855     0.608276     -43.6678 
-0.000107230      3.26153     -91.7570 
-3.57467e-05      2.65277     -84.3754 
0.000106637      2.00370     -117.332 
0.000177272      8.02661     -79.8101 
-7.79016e-05      7.28670     -68.0818 
3.59680e-05      6.38003     -90.1796 
-0.000219431      7.07935     -65.4623 
2.34203e-05      5.02362     -69.9779 
-5.84734e-05      8.00862     -75.6861 
4.60780e-05      5.90054     -89.2232 
-0.000107923      4.60004     -90.2491 
-0.000127278      7.05932     -80.3776 
-7.41269e-05      4.98004     -90.2301 
1.22331e-05      2.31603     -106.557 
-0.000157260      1.72743     -95.3145 
8.83531e-05     0.335261     -107.354 
-4.42845e-05      9.70348     -72.6108 
1.20420e-05      6.58778     -92.7842 
-0.000115161      1.31939     -104.036 
0.000146561      5.02923     -67.3100 
-3.47919e-05      7.82368     -71.9819 
-0.000105412     0.761052     -93.0128 
-0.000101422      8.15868     -71.5651 
-0.000161043      6.26923     -93.1089 
-1.18773e-05      8.56154     -75.8014 
5.62417e-05      8.74881     -77.4570 
0.000113623      6.58595     -92.4366 
0.000111219      8.19878     -66.8748 
0.000140751      4.42719     -71.5651 
-4.95666e-05      7.45668     -71.7108 
-2.29050e-05      3.58670     -70.4536 
-3.32420e-05      4.64155     -88.5185 
-0.000130286      4.22753     -69.5074 
-2.26420e-05      6.01345     -82.3550 
-8.07092e-05      7.67255     -79.3345 
-6.02946e-05      6.01136     -74.7616 
7.82668e-05      6.23699     -65.1607 
-2.18247e-05      5.17548     -94.4327 
-3.07264e-05     0.945304     -83.9275 
5.19022e-05      4.44387     -95.9415 
-1.12767e-05      8.50882     -66.4477 
4.09973e-05      7.59226     -81.0588 
6.09216e-05      4.04712     -86.6003 
-5.08868e-05      2.84345     -74.4975 
7.98916e-05      6.38000     -90.0000 
7.26127e-05      5.16717     -71.4949 
0.000128424      6.97160     -70.2135 
-8.83143e-05      7.44218     -88.6141 
-0.000117998      8.50085     -66.5713 
4.02985e-05      2.30868     -94.9697 
-3.90860e-05      3.56118     -70.6492 
-1.09611e-05      7.11576     -70.8012 
-4.93387e-05      1.70294     -102.894 
2.06368e-05      1.42127     -92.4195 
-9.83073e-05      8.40390     -77.3529 
2.09241e-05      1.96865     -110.829 
0.000145686      3.66824     -64.8321 
-0.000135975      6.90093     -72.4578 
-0.000105856      7.84270     -72.0271 
-6.87489e-05     0.216333     -33.6901 
-1.08278e-05      4.78819     -93.3524 
-3.98872e-05      8.58093     -75.8342 
0.000135776      9.65824     -69.3884 
5.88505e-05      3.50463     -92.9440 
-0.000105596      8.00370     -75.8249 
0.000106534      9.07189     -85.1944 
-6.90149e-05      3.61226     -70.2608 
-0.000106700      1.84011     -89.3772 
-0.000117298     0.200000     -36.8699 
-0.000104587      6.03596     -82.1921 
-5.99903e-05      8.65843     -71.2721 
-5.94315e-05      7.12236     -70.6492 
-0.000106990      9.84758     -76.6129 
4.98639e-05      2.02869     -99.6480 
5.09306e-05      7.54615     -65.7446 
-5.93969e-05      8.43317     -79.0632 
0.000104123      2.26716     -85.4462 
0.000104137      7.97797     -74.2914 
-3.80584e-05      8.76185     -74.9169 
-9.48936e-05      9.94853     -71.6015 
-4.75462e-05      2.65089     -84.8056 
6.56095e-05      6.02013     -90.3807 
8.52147e-05      7.03420     -75.1735 
0.000141054      1.44125     -92.3859 
-4.88549e-05      8.86711     -75.9011 
5.68362e-05      5.04769     -67.3976 
-5.65391e-05      1.31469     -103.191 
-7.49045e-05      2.71183     -103.216 
-9.28485e-05      6.28815     -92.9170 
5.60280e-05      8.42406     -80.9849 
4.68571e-05      5.37062     -70.4179 
-3.79074e-05      6.04417     -84.8742 
-1.00191e-05      4.64108     -88.7654 
-4.68384e-05      2.82461     -100.196 
1.91542e-05      2.16120     -101.206 
6.51874e-05      5.95859     -70.5920 
1.94949e-05      8.02309     -79.9507 
3.74950e-05      2.09351     -108.954 
-4.60908e-05     0.635295     -61.8214 
8.31429e-05      6.42448     -87.8591 
-3.70105e-05      8.94090     -82.2868 
-9.70698e-06      5.17706     -94.6534 
7.35422e-05      7.52792     -65.6820 
-9.06945e-05      6.67323     -86.3915 
-2.73211e-05      7.38133     -83.9341 
-3.61710e-05      9.23751     -78.1305 
6.32063e-05      9.28319     -82.3238 
9.46837e-06      2.30703     -94.4749 
4.51777e-05      8.92155     -67.4592 
5.41690e-05      5.44500     -74.2281 
-5.40112e-05      9.03117     -81.8520 
-3.58539e-05      8.45281     -79.0889 
-1.84277e-05      7.29419     -67.9360 
4.52330e-05      8.00340     -79.9257 
-4.50139e-05      8.94707     -78.2631 
-3.58916e-05      3.36595     -86.5936 
-4.49114e-05      5.28140     -82.8212 
9.24847e-06      6.53621     -94.0357 
-1.80561e-05      4.02631     -69.0442 
-3.58196e-05      4.62000     -90.0000 
1.80899e-05      6.58513     -92.2628 
2.67235e-05      5.18614     -71.5650 
2.66196e-05      1.19616     -110.556 
1.79196e-05      1.98595     -117.597 
-2.65468e-05      8.63949     -71.2295 
1.78266e-05      6.65976     -71.6195 
2.67311e-05      7.72161     -67.6199 
3.53211e-05      4.02020     -90.5701 
-2.65791e-05     0.762365     -94.5140 
4.38751e-05      7.85682     -70.3658 
-1.79143e-05      5.05244     -77.8894 
-2.64937e-05      8.70788     -69.5672 
-2.63382e-05      4.74721     -69.2744 
1.77031e-05      2.02544     -99.0903 
8.96875e-06      1.95724     -111.584 
-1.76484e-05      7.14123     -70.7024 
8.90507e-06      6.11130     -65.0284 
2.61662e-05      3.25011     -76.4768 
-8.86300e-06      7.22186     -66.8431 
-1.74791e-05      7.04931     -67.6552 
-1.74364e-05      6.35449     -68.1986 
8.81966e-06      8.13941     -79.3803 
1.73776e-05      7.84237     -79.8651 
-8.76808e-06      5.04959     -76.0188 
-8.76573e-06      5.16054     -95.1140 
8.72080e-06      8.06387     -85.5904 
1.72616e-05      7.79872     -77.7103 
-8.66381e-06      1.49893     -108.677 
8.65009e-06      6.58875     -83.0260 
8.60786e-06    0.0800000      0.00000 
-8.59162e-06      5.03508     -75.7430 
8.58216e-06      4.53617     -77.0054 
-8.57585e-06      6.38360     -76.2250 
-8.53730e-06      4.39477     -75.7740 
