! Center RA: 16 42 58.80997,  Dec: +39 48 36.99402 (2000.0)
! Established model.
! Flux (Jy) Radius (mas)  Theta (deg)  Major FWHM (mas)  Axial ratio   Phi (deg) T \
! Freq (Hz)     SpecIndex
  0.561757      0.00000      0.00000 
  0.129704    0.0200000      90.0000 
 0.0683049    0.0447214     -63.4349 
 0.0673250    0.0447214      116.565 
  0.101757    0.0632456     -71.5651 
  0.252744    0.0632456      108.435 
 0.0551119    0.0600000     -90.0000 
  0.370505    0.0800000     -90.0000 
  0.304940    0.0824621      104.036 
  0.143799     0.100000     -90.0000 
  0.275026    0.0800000      90.0000 
  0.187725     0.101980     -101.310 
 0.0315146    0.0632456     -18.4349 
 0.0675305     0.126491     -108.435 
 0.0810184     0.101980      101.310 
 0.0470017    0.0824621     -14.0362 
 0.0253025    0.0721110     -33.6901 
0.00802889     0.107703      111.801 
0.00563771     0.200998     -95.7106 
0.00346084     0.203961     -101.310 
 0.0433121     0.107703     -111.801 
 0.0263233      2.05767     -105.792 
0.00784947     0.220907     -95.1944 
 0.0200876      2.04402     -106.484 
 0.0160685     0.223607     -100.305 
 0.0194985     0.243310     -99.4623 
 0.0331769     0.760263     -88.4926 
 0.0243353     0.134164      116.565 
0.00318034      2.09093     -104.967 
0.00384134      2.02485     -106.645 
0.00169428      2.10038     -103.772 
0.00643993      1.65215     -96.9530 
0.00838347      2.00569     -106.809 
 0.0123933      2.10523     -104.300 
 0.0145615      1.42352     -94.0283 
0.00789197     0.427551     -100.784 
0.00205571     0.126491      108.435 
0.00398574      1.62997     -96.3402 
0.00173963     0.451221     -102.804 
 0.0133888     0.100000      0.00000 
0.00364460     0.247386     -104.036 
0.00162006     0.563205     -96.1155 
0.00588388     0.581378     -93.9452 
0.00749446      1.62788     -95.6405 
0.00186950      1.96469     -104.744 
0.00143206      1.70317     -99.4623 
0.00173264      2.01157     -107.354 
0.00267874     0.266833     -102.995 
0.00767681      1.72627     -100.008 
0.00640498     0.272029     -107.103 
0.00784536     0.583095     -95.9061 
0.00455358      1.94031     -104.323 
0.00215929      2.01762     -107.896 
0.000783983      2.11026     -104.826 
0.00567716      1.42225     -93.2245 
0.00223375      1.60611     -95.0006 
0.00225855      2.11981     -103.643 
0.00300030      2.12462     -104.167 
0.00763692     0.431741     -103.392 
0.000712458     0.241661     -65.5560 
0.00472626      1.47648     -98.5691 
0.00151933      1.79477     -104.191 
0.00302129      1.28763     -96.2419 
0.00429959      1.93546     -103.749 
0.000331529     0.233238     -59.0362 
0.000935571      2.12085     -105.871 
0.000625530      2.09122     -102.707 
0.00336090     0.244131     -55.0080 
0.00196308      1.99860     -108.072 
0.000313815      1.81912     -104.647 
0.000573755      2.08691     -102.171 
0.00573684      2.00489     -108.616 
0.00105838      1.60449     -94.2892 
0.00198708      2.12641     -106.390 
0.00265291      1.79978     -104.808 
0.00806543      2.28543     -98.5556 
0.00624806      1.26775     -96.3402 
0.00318242     0.268328     -116.565 
0.000781684      2.06320     -101.746 
0.000929056      1.70000     -98.7974 
0.00471415      1.74011     -90.6585 
0.000247187      1.81417     -104.036 
0.00359571      1.87297     -96.7456 
0.00111686      2.05922     -101.201 
0.00428706      1.09179     -98.4270 
0.000877217      1.58202     -92.8986 
0.00192634      2.13214     -106.905 
0.00111464      1.76011     -90.6511 
0.00319562      1.62086     -105.751 
0.00199116      1.42127     -92.4195 
0.00193025     0.256125     -51.3402 
0.000400954      1.56051     -91.4688 
0.000198490      2.08279     -101.634 
0.00256748     0.120000      0.00000 
0.00192781      1.56013     -90.7345 
0.000375797      2.07885     -101.094 
0.00167512     0.901998     -86.1859 
0.000693344      2.14401     -104.036 
0.00103680     0.116619     -120.964 
0.00102449      1.47959     -99.3350 
0.00152619      2.13804     -107.418 
0.00211056     0.297321     -132.274 
0.000176496      2.07509     -100.552 
0.00341756      2.09380     -96.5819 
0.00110213      2.30521     -98.4816 
0.000866160      1.80499     -105.422 
-0.00330361     0.101980      168.690 
-0.00580947     0.188680      57.9946 
0.00152084      1.31027     -102.339 
0.000463778     0.740000     -90.0000 
0.00160093      2.09160     -96.0377 
0.00134219      1.56000     -90.0000 
0.00297803    0.0894427     -116.565 
0.00104422      2.14411     -107.928 
0.000449237      2.42792     -101.402 
0.000150267      1.72290     -99.3530 
0.000294461      1.49933     -99.2110 
0.000146076     0.740270     -91.5482 
0.000474362      1.58619     -95.0636 
0.000909355      1.97525     -105.866 
0.000485884      1.56627     -95.1282 
0.000536001      1.74951     -100.539 
0.000838348      1.94535     -104.893 
0.00105841      1.26570     -95.4403 
0.00129748      1.49626     -98.4550 
0.000644333     0.880227     -88.6980 
0.000536559      1.71977     -98.6955 
0.00144249     0.707107     -98.1301 
0.000639752      1.81041     -106.032 
0.00139058     0.880909     -87.3974 
0.00103908      1.74046     -91.3169 
0.000605097      1.87542     -97.3524 
0.000581126     0.380526     -86.9872 
0.000205457      1.98081     -106.422 
0.000400088      2.42124     -97.5946 
0.000202514     0.401995     -95.7106 
0.000936226      1.29074     -102.529 
0.00140838      1.69434     -97.4606 
0.000391238      2.41006     -95.2375 
0.00112050     0.585491     -97.8533 
0.000387411      1.98655     -106.975 
0.00109423      1.81604     -106.639 
0.00143443      1.61555     -105.068 
0.00119711     0.436807     -105.945 
0.000193310     0.280000     -90.0000 
0.000187785     0.280713     -94.0856 
0.000186233      2.42396     -98.0632 
0.00102856     0.263059     -98.7462 
0.000860147      2.40832     -94.7636 
0.000179419      2.42685     -98.5308 
0.000179176      1.42056     -91.6135 
0.00109232     0.710211     -99.7276 
0.000348243      1.99249     -107.526 
0.000343755      2.12960     -104.689 
0.000993882     0.882043     -86.0995 
0.000492985      2.42990     -98.9971 
0.000479391      1.40057     -91.6366 
0.000469699     0.382099     -83.9910 
0.00109586     0.588558     -99.7824 
0.000726828    0.0894427     -63.4349 
0.00152845      1.09490     -99.4623 
0.000304837      1.80887     -108.034 
0.00124590     0.268328     -63.4349 
0.000959703      2.40674     -94.2892 
0.00144345      1.87072     -96.1373 
0.000833992      1.29522     -103.392 
0.000589008      2.43310     -99.4623 
0.000150826      2.38680     -94.3251 
0.000150707     0.883629     -84.8056 
0.00152702     0.100000     -53.1301 
0.00164314      1.40014     -90.8185 
0.000426653     0.885664     -83.5169 
0.00144664      1.81516     -108.635 
0.000405446     0.384708     -81.0274 
0.000699709      1.48297     -100.098 
0.000407654     0.910824     -98.8418 
0.000395733     0.442719     -108.435 
0.000576091      2.24116     -103.416 
0.000973484      1.10725     -110.072 
0.000902137      2.43647     -99.9262 
0.000259135     0.868332     -82.0565 
0.000131667     0.764199     -83.9910 
0.000129378     0.729931     -99.4623 
0.000690338     0.888144     -82.2348 
0.000685787      1.56013     -89.2655 
0.000125057      1.72047     -88.6678 
0.000675285     0.914112     -100.081 
0.000123649     0.713863     -101.310 
0.000606921     0.260768     -94.3987 
0.000237477     0.766551     -82.5041 
0.000755211      2.38537     -93.8460 
0.000351841     0.311127     -135.000 
0.000329038     0.388330     -78.1113 
0.000763155     0.449444     -110.854 
0.000335148     0.733485     -101.004 
0.000924571      1.72105     -88.0021 
0.00153999      2.74925     -98.3659 
0.000404052      2.44000     -100.389 
0.000543015     0.100000     -36.8699 
0.000615176      1.31469     -103.191 
0.000208998     0.277849     -59.7436 
0.000315487     0.373631     -74.4759 
0.000322470     0.312410     -140.194 
0.000509737     0.769415     -81.0274 
0.000632963      2.46089     -97.4716 
0.000705908     0.272029     -53.9726 
0.000739373      1.12606     -109.722 
0.000495609     0.592284     -101.689 
0.00103537      3.41696     -84.2894 
0.000744948      1.86869     -95.5275 
0.00136129      3.73636     -98.0000 
0.00109331     0.328024     -142.431 
0.000783710      2.44369     -100.850 
0.000618129     0.737564     -102.529 
0.000307509      1.26396     -94.5378 
0.00125791     0.891067     -80.9605 
0.00125661      2.15035     -108.435 
0.00260674      2.92007     -89.6076 
0.000730468     0.917823     -101.310 
0.000706498      1.11427     -111.038 
0.000187966      1.67200     -96.8700 
0.00197414      3.90635     -81.1646 
0.00108113      1.20266     -86.1859 
0.00126676      5.62910     -86.7411 
0.000343929      1.56051     -88.5312 
0.000578449      3.44285     -87.6695 
0.00256065      2.52127     -91.8183 
0.000732031      3.75617     -97.9575 
0.000965355      3.57262     -94.8169 
9.19431e-05      2.24589     -103.912 
0.000747268     0.772787     -79.5625 
0.000339370      3.54452     -80.9097 
0.000837047     0.121655      9.46232 
0.000577459      6.34842     -84.5768 
0.000337400      3.60228     -83.6247 
0.000176852      3.64137     -88.4263 
0.000600102      3.28098     -88.6028 
0.00133949      3.44209     -88.0021 
0.00117422     0.172047      125.538 
0.00130230      1.30000     -104.250 
0.000172416      5.50654     -84.3722 
8.64778e-05     0.588218     -107.819 
0.000318351      6.23285     -86.3205 
0.000247961     0.392938     -75.2564 
0.000978057      5.85368     -86.0818 
0.000824826      3.44488     -77.2547 
0.000718322      3.64198     -88.1118 
0.000848738      3.97316     -75.1243 
0.000654599      2.15676     -108.939 
0.000342552     0.456946     -113.199 
8.21591e-05     0.900222     -91.2730 
0.000887516      5.48471     -84.5597 
0.000332128      1.72186     -87.3370 
0.000847064      5.93906     -83.4254 
0.000497913     0.594643     -109.654 
0.00123759     0.260000     -90.0000 
0.000891230      1.75328     -101.182 
0.000348394      1.86687     -94.9166 
0.000994476      6.62607     -83.2396 
0.000297767      1.26254     -93.6330 
0.000690087      2.75224     -98.7778 
0.00116984      3.54773     -80.5908 
0.000761810     0.141421      8.13010 
0.000827483      1.40000     -90.0000 
0.000334986      3.20506     -82.8306 
0.000384601      1.56115     -87.7974 
0.00113607     0.742159     -104.036 
0.000296879      2.20227     -76.3424 
0.000209778      3.60011     -83.9410 
0.000445890      2.11518     -103.116 
0.000482119      3.99284     -85.4032 
7.28786e-05     0.260768     -57.5288 
0.000809531     0.776660     -78.1113 
0.000253013      1.50625     -100.713 
0.00143015      2.85188     -95.2308 
0.000140171      6.23160     -86.5040 
0.000236677      5.63028     -86.5379 
0.000397273      6.00536     -79.2514 
0.000274654    0.0824621     -75.9638 
0.00126215      1.47472     -110.647 
-0.00633503    0.0824621      165.964 
0.00728679     0.156205      129.806 
0.000531550      6.51770     -85.7766 
0.000524950     0.260768     -85.6013 
0.000979342      2.58874     -101.136 
0.00159253    0.0824621     -104.036 
0.000415004      2.26000     -82.3719 
0.000824321      6.20932     -86.8611 
0.000249188      4.10707     -81.3175 
0.000759598      3.57435     -95.1364 
6.53780e-05      2.42033     -100.474 
0.000772743      7.99610     -77.2847 
0.000113552      1.82165     -109.231 
0.000459045      1.94000     -90.0000 
0.000434539     0.272029     -72.8973 
0.000666062     0.921954     -102.529 
0.000354632      2.41677     -100.008 
0.000588261      6.10501     -83.0380 
0.00111839      2.79034     -85.0658 
0.000339987      3.58022     -83.9072 
0.00174369     0.126491      18.4349 
0.000441026      3.23790     -96.0275 
0.000906173      8.07676     -79.4414 
0.000159488      1.11158     -98.2759 
0.000488220      3.38378     -92.7102 
0.00104416      6.39015     -86.7704 
0.000827208      5.91709     -82.0342 
0.000324327      5.56129     -88.7636 
0.000559991      3.98181     -69.1071 
0.000383347     0.344093     -144.462 
0.000493260      6.03258     -78.9136 
0.000951935      4.27444     -80.8462 
0.000853147     0.601664     -111.448 
0.000411841      6.48845     -81.6701 
0.000549712      1.76102     -91.9525 
0.000269643      7.00548     -79.1392 
0.000526908      5.73362     -83.7922 
0.000910327      3.94183     -91.7445 
0.000356496      5.92392     -83.0189 
0.000108644      5.38093     -88.9351 
0.000620045      6.90440     -85.1812 
0.000521812      6.27917     -82.1280 
0.000105201      4.11013     -81.0419 
0.000458068      1.70294     -86.6335 
0.000184217      5.31993     -85.0396 
0.000548475      7.56257     -75.4492 
0.00102488      1.52591     -100.574 
0.000531916      2.41338     -99.5404 
0.000636777      1.13296     -110.674 
0.000253434      5.46293     -84.7486 
0.000309367      1.70423     -85.9623 
0.000101167      1.89789     -97.8739 
0.000243344      5.65608     -78.3722 
0.000609258      3.20262     -83.1856 
9.94028e-05      3.76431     -92.7408 
0.000369344      3.96807     -75.4034 
0.000437687      5.38059     -89.1481 
0.000538851      7.19569     -69.4999 
0.000135735      2.36415     -93.3949 
0.000555340     0.761577     -76.3287 
0.000339116      2.12009     -89.4595 
0.000320540      6.98209     -79.2694 
4.95916e-05      2.61228     -101.482 
0.000504888      7.76116     -72.4522 
0.000221267      1.56205     -87.0643 
0.000348751      2.28254     -81.9409 
0.000555006      3.57816     -84.2257 
0.000202333      5.65024     -86.5502 
0.000316707      1.94010     -89.4093 
0.000180411      7.67880     -76.2895 
0.000434276      6.72336     -85.2222 
0.000248625      1.90074     -98.4711 
0.000837999      5.79828     -94.5503 
0.000398579      3.24006     -96.3792 
0.000482085      6.80802     -81.8937 
0.000433150      3.99129     -85.6894 
8.64487e-05      4.11330     -80.7667 
0.000493757      3.74534     -93.0610 
4.53423e-05      4.40872     -78.4862 
0.00109982      7.45678     -71.2249 
0.000544718      5.46824     -86.8550 
-0.00122044      2.85237     -75.3791 
4.49296e-05     0.398497     -72.4744 
8.70281e-05      1.75727     -101.821 
0.000228390      5.56090     -88.9696 
0.000203393      8.12495     -75.8953 
0.000274663      3.64269     -87.7974 
0.000758253      2.46641     -81.6071 
0.000375822      2.27517     -104.769 
0.000738633      4.44063     -77.7791 
0.000283135     0.747262     -105.524 
0.000440058      5.27731     -80.1807 
4.35220e-05      1.82833     -109.822 
8.48917e-05      5.65208     -78.5708 
0.000427193      6.51920     -85.6013 
0.000179056      4.29334     -76.8053 
0.000237185      5.82591     -75.4867 
0.000104312     0.269072     -48.0128 
0.000244227      8.02002     -77.1767 
0.000710290      1.28577     -105.333 
4.20320e-05      7.56762     -75.3027 
0.000432213      2.74007     -90.4182 
8.16676e-05      7.65465     -76.3995 
0.000114572      6.49138     -81.4954 
0.000282421      6.98584     -79.1083 
0.000263954      7.61288     -74.6129 
0.000380012      3.46883     -77.0054 
0.000251701      3.06653     -93.7395 
7.78393e-05      1.83848     -112.380 
0.000890572      8.31909     -75.6631 
0.000429542     0.926499     -103.736 
3.95068e-05      5.64815     -78.7696 
0.000559521    0.0848528     -45.0000 
0.000290472      7.09606     -77.9616 
0.000111212      5.85235     -86.2771 
0.000200655      7.64997     -76.5451 
0.000823203      8.83647     -82.4568 
0.000392719     0.900000     -90.0000 
7.52542e-05      1.91510     -82.8008 
0.000606128      4.94975     -98.1301 
0.000765383      7.94405     -68.2789 
0.000144764      2.27068     -95.5599 
0.000759116     0.145602      15.9454 
0.000279209      7.38458     -87.9823 
7.41147e-05      5.64429     -78.9688 
0.000895041      6.71077     -93.2461 
0.000137721      1.56320     -86.3322 
-3.71638e-05      7.00337     -63.3618 
0.000749358      6.48901     -71.6767 
3.69024e-05      4.09356     -80.7218 
0.000256992     0.894427     -79.6952 
0.000165742      6.02876     -79.1001 
-0.00132743     0.178885      63.4349 
0.000138910      6.08763     -82.8283 
0.000206065      7.82309     -83.9833 
0.000105036      3.38479     -93.0484 
0.000122936      7.79872     -77.7103 
-0.000297250      7.01236     -63.2157 
0.000732534      2.41015     -99.0715 
0.000768111      5.83095     -75.2964 
0.000460405      8.63134     -79.9920 
0.000345045      5.79496     -72.9409 
0.000680173     0.766551     -74.8760 
0.000223940      1.91771     -82.2079 
0.000238141      1.24258     -93.6914 
6.02213e-05      3.17824     -83.8589 
0.000400974      7.50395     -78.0012 
3.47425e-05     0.266833     -77.0054 
0.000163927      5.64050     -79.1682 
0.000157110      7.02922     -87.0643 
0.000217672      3.46283     -87.6829 
3.45924e-05      2.77200     -98.7147 
9.90934e-05      5.10000     -81.2026 
0.000718591      6.59385     -79.3376 
0.000189735      9.70744     -75.0762 
3.42637e-05      6.03755     -85.6304 
6.52810e-05      7.55757     -75.5960 
6.59878e-05      1.90379     -99.0665 
0.000358057      9.34343     -70.3627 
0.000323230      1.40014     -89.1815 
0.000409070      8.07312     -79.5809 
3.39091e-05      1.84619     -112.954 
0.000572359      7.38003     -67.5354 
0.000306498      8.12985     -75.7586 
0.000349997      9.37957     -71.9900 
0.000338130      3.96308     -75.6832 
3.37187e-05      5.34161     -84.8444 
0.000194936     0.447214     -116.565 
0.000262006      7.75515     -72.5931 
0.000146027      4.09683     -80.4457 
0.000262715      7.23273     -75.4258 
0.000240015      1.20416     -85.2364 
0.000206488      2.48918     -81.2188 
3.28016e-05     0.360555     -146.310 
3.27914e-05      6.93965     -77.6861 
0.000487739      5.89535     -70.5815 
0.000149918      2.26883     -95.0572 
5.74753e-05     0.874757     -79.4608 
0.000424984      5.64907     -86.7527 
0.000178644      7.31259     -80.8726 
0.000616021      6.94395     -77.5249 
0.000147699      6.09016     -82.6416 
0.000610281     0.100000     -126.870 
0.000642569      3.40476     -93.0305 
0.000563644      5.97773     -94.4134 
0.000741831      4.59991     -99.2575 
0.000142113      5.36336     -84.6508 
0.000563544      6.53621     -94.0357 
0.000438574      7.84298     -83.9986 
0.000233336      2.08959     -95.4923 
-0.00115351      2.48129     -88.1524 
8.60483e-05      8.31538     -78.9063 
0.000549343      6.40050     -90.7162 
0.000176128      7.72839     -87.3301 
0.000143451      7.38531     -87.8272 
0.000418989      6.12395     -77.5524 
0.000122924      7.84951     -79.5776 
0.000141148      6.87165     -86.6629 
0.000404760      3.04946     -94.5140 
0.000111465      1.90704     -99.6599 
-0.00520817    0.0632456      161.565 
8.75917e-05      1.56461     -85.6013 
0.000217092      5.88122     -88.8309 
0.000290988      5.63677     -79.3679 
0.000268624      7.20161     -82.5000 
0.000158316      1.76182     -92.6026 
2.98041e-05      9.11010     -76.5434 
5.79373e-05      7.82698     -74.4367 
8.24923e-05      5.10310     -80.9807 
0.000105535      1.96010     -89.4154 
8.09849e-05      1.85408     -113.523 
-0.000301188      2.48202     -87.6909 
0.000106706      7.20272     -69.3509 
0.000141087      5.27394     -80.3948 
-0.000666751      3.42538     -102.819 
0.000258705      2.10000     -90.0000 
0.000415870      9.13893     -76.3287 
0.000258693      1.48189     -111.371 
-0.000254337      6.23233     -67.5499 
0.000306957      8.48401     -75.6689 
0.000149859      2.34418     -93.4239 
0.000180933      6.65555     -81.3586 
0.000246823      2.77510     -99.1229 
0.000168877      7.03028     -86.9015 
2.83055e-05      4.36898     -86.3255 
0.000136590      3.64351     -87.4831 
0.000107269      6.39131     -86.5914 
0.00123485     0.116619      30.9638 
7.02016e-05      7.54957     -87.1149 
7.93339e-05      3.11082     -77.7509 
0.000191640      9.70231     -75.1903 
0.000129012      1.90074     -81.5289 
0.000288332     0.599333     -64.2900 
0.000367276      1.55048     -83.3333 
0.000210055      6.70075     -89.1449 
2.72542e-05      5.05114     -83.6348 
0.000358026      7.72935     -87.1820 
0.000453164      4.84335     -87.8701 
0.000217493      5.91990     -81.8425 
0.000193111      1.33282     -115.796 
9.46636e-05      6.80523     -82.0604 
0.000416640      5.56191     -69.8057 
0.000136191      6.60109     -91.0416 
0.000163357     0.280713     -85.9144 
2.62033e-05      7.85705     -74.1948 
0.000670681     0.966023     -117.096 
4.98282e-05      7.55060     -86.9633 
0.000201571      6.09275     -82.4551 
0.000111090      3.55106     -80.2724 
7.22128e-05      5.05339     -83.4094 
0.000230493      5.02812     -71.2047 
0.000593446     0.609262     -113.199 
9.79485e-05      8.02189     -74.2312 
-0.000690872      3.76324     -66.8414 
0.000160322      7.36532     -87.8213 
0.000137194      7.30945     -81.0274 
2.52038e-05      6.03911     -85.4412 
9.36876e-05      2.24891     -95.1022 
0.000150870      8.14165     -82.9448 
0.000636479      4.44491     -77.5271 
0.00196599    0.0721110     -56.3099 
4.85674e-05      7.55262     -75.7430 
0.000147405      7.20544     -87.7730 
0.000140801      9.72165     -75.2204 
0.000295004      8.31081     -71.0418 
0.000235945      5.23679     -71.2883 
0.000116627      5.38327     -84.6707 
6.80188e-05      1.91050     -100.251 
0.000212701      8.64759     -80.1455 
6.90008e-05      3.17616     -84.2176 
0.000340083      4.10020     -80.1701 
2.42194e-05      7.86252     -74.0546 
0.000561572      8.19390     -66.2505 
0.000187264      3.55826     -84.1933 
0.000404814      6.37134     -86.5807 
0.000123031      6.72173     -85.3921 
2.39681e-05      8.14442     -80.8152 
0.000329204      5.76125     -88.8065 
0.000114490      5.73582     -83.5936 
0.00110389     0.100000     -143.130 
0.000150611      7.64246     -77.4549 
0.000430533      3.35261     -107.354 
0.000341480      7.90595     -72.0234 
0.000389207     0.602993     -95.7106 
0.000125048      1.86215     -114.087 
0.000110569      9.18577     -72.9064 
0.000122906      5.88167     -88.6361 
2.33482e-05      3.39912     -83.9204 
0.000130173      8.14764     -80.6764 
0.000152287      3.11512     -77.3914 
9.07931e-05      6.87052     -86.8294 
0.000100166      5.48285     -84.7677 
0.000133945      5.99803     -79.6268 
0.000275988      1.90379     -80.9335 
0.000209245      8.02735     -74.0938 
2.26400e-05      5.92638     -82.8270 
0.000315578      6.53287     -74.0064 
0.000112181      3.97472     -69.3765 
0.000231835      6.67835     -81.2147 
6.52289e-05      8.04393     -85.5794 
0.000264654      3.94249     -92.0350 
-0.000609583     0.170880      69.4440 
0.000140169      2.85377     -95.6307 
0.000271063      5.63312     -79.5678 
0.000354051      6.98140     -91.1490 
0.000133514      9.55207     -73.9557 
-0.000447704      6.22472     -67.7200 
0.000302661      3.66350     -66.5139 
5.91659e-05     0.367151     -150.642 
-0.000142158      3.98663     -96.6259 
0.000470944      2.78869     -85.4752 
-0.000332116      2.66188     -87.8470 
3.91562e-05      6.79049     -79.6499 
0.000117764      6.12829     -77.3698 
0.000423146      9.59785     -70.0169 
0.000110432      7.61821     -74.4678 
0.000245690      7.73036     -87.0340 
0.000248383      7.37241     -67.6790 
7.54874e-05      1.74184     -92.6324 
9.98990e-05      9.14368     -76.2069 
-0.000178368      3.39600     -74.9816 
-0.000415599      4.80803     -74.8076 
5.91619e-05      5.03126     -83.6095 
0.000193436      9.19167     -72.7873 
-4.04030e-05      7.66525     -63.5018 
0.000267578      3.28055     -88.9520 
0.000161169      4.64108     -88.7654 
-0.000258899      9.22280     -80.6398 
0.000174425      8.04241     -85.7215 
-0.000514181      3.56887     -106.607 
0.000167411      1.96041     -88.8309 
7.59618e-05      1.27781     -107.301 
5.92019e-05      8.96636     -80.3696 
2.03036e-05      7.83349     -79.4073 
9.50995e-05      7.00731     -87.3826 
0.000492797      6.55616     -94.0234 
0.000246375      5.02171     -71.4207 
0.000411247      7.86081     -84.1589 
0.000311755      2.34307     -92.9357 
0.000289693      7.56227     -76.0740 
0.000223919      7.36611     -87.6659 
0.000125068      7.30635     -81.1823 
0.000188220      3.99084     -65.1045 
-0.000512082     0.472017     -143.616 
0.000199225      8.25150     -69.7203 
-0.000250219      3.98437     -96.3402 
9.55231e-05      3.65776     -76.7236 
7.06595e-05      7.20625     -87.6141 
-0.000159014      2.50392     -86.7948 
0.000134288      3.37722     -81.4860 
7.35341e-05      5.26972     -93.4814 
0.000124817      8.12790     -80.6536 
0.000184480      4.09883     -101.255 
0.000394530      5.02494     -68.0292 
-6.40560e-05      6.35610     -65.8545 
7.78348e-05      2.08777     -94.9460 
0.000153516      7.86287     -84.0139 
8.82307e-05      6.98183     -91.3131 
0.000308880      5.92088     -70.4633 
9.19938e-05      7.22772     -75.5792 
-0.000134485      7.65634     -63.6357 
0.000461061      2.39040     -99.1471 
-0.000276536      2.68745     -75.3432 
0.000110942      5.24324     -71.0813 
-0.000302222      5.02864     -79.2264 
0.000128112      2.09571     -103.241 
0.000143739      1.22262     -86.2483 
8.58560e-05      7.37512     -82.9906 
0.000117603      8.31416     -75.7966 
0.000213836      3.98984     -85.9758 
8.47570e-05      7.15690     -73.4388 
-0.000164475      6.36431     -65.6902 
1.85693e-05     0.438634     -114.228 
0.000182106      7.65768     -77.6335 
-0.000682746      3.39087     -75.3080 
3.54441e-05      6.27646     -82.3088 
0.000113621      9.16788     -76.1153 
0.000136104      8.96304     -80.4956 
0.000121573      5.96154     -67.3062 
6.90643e-05      3.10000     -90.0000 
3.59222e-05      1.93080     -103.173 
1.82269e-05      9.61881     -77.7555 
-0.000636139     0.164924     -104.036 
-0.000400854      2.64068     -88.6980 
0.000361648      9.43004     -82.0761 
-0.000249653      3.86704     -69.4093 
-0.00136836     0.161245     -97.1250 
0.000255693      9.55761     -73.8405 
3.37329e-05      6.09541     -82.2687 
1.78977e-05      1.40057     -88.3634 
1.78652e-05      5.10952     -80.5377 
0.000291628      6.48077     -68.2643 
1.77315e-05      2.12509     -108.094 
0.000121235      1.40513     -85.1009 
7.11613e-05      8.62788     -80.1228 
0.000123686      7.11562     -77.9952 
-0.000270350      4.48874     -93.5763 
0.000126161      9.61459     -77.8719 
0.000478617     0.384708     -152.103 
0.000242127      3.15379     -100.597 
-8.18375e-05      7.09056     -69.0089 
0.000143802      6.52049     -89.2970 
0.000182078      1.62641     -106.429 
5.03753e-05      5.11285     -80.3166 
1.73328e-05     0.900222     -88.7270 
8.51251e-05      2.08010     -90.5509 
4.82222e-05      6.79465     -82.7286 
0.000112017      4.15047     -69.9933 
1.71490e-05      1.74597     -99.8939 
0.000114276      8.25964     -65.2345 
9.44236e-05      5.86167     -88.6314 
0.00164273     0.116619     -149.036 
1.68364e-05      8.13921     -83.0845 
6.49369e-05      10.0055     -71.7099 
6.25408e-05      5.78170     -88.6125 
0.000130335      6.11153     -84.1775 
3.12559e-05      6.68075     -89.1423 
6.32251e-05      5.27098     -93.6984 
0.000409481      1.87040     -114.647 
0.000127819      3.70864     -82.8750 
-0.000249062     0.164924      75.9638 
7.16242e-05      1.92208     -102.011 
0.000154486      7.00825     -87.2192 
9.50877e-05      2.11896     -107.580 
-7.54944e-05      3.53327     -62.7097 
3.12704e-05      3.95596     -65.5081 
1.63693e-05      8.12428     -82.7875 
1.63020e-05      7.20980     -69.2021 
0.000161009      8.13117     -80.5145 
0.000295573      5.99550     -67.0273 
0.000448080      3.60272     -68.8483 
1.61413e-05      1.74264     -99.2461 
0.000923182     0.128062      38.6598 
3.14863e-05      7.22407     -82.3634 
1.60852e-05      1.55293     -82.6004 
0.000231029      3.27426     -76.2184 
0.000273858      8.95379     -83.7163 
-1.60022e-05      4.16332     -96.0666 
-0.000217330      8.10462     -77.7472 
1.59961e-05      8.09279     -79.6065 
7.64638e-05      7.91884     -72.2057 
3.11296e-05      5.11625     -80.0958 
3.02731e-05      1.92634     -102.593 
0.000106696      3.10006     -89.6304 
6.48295e-05      6.60076     -90.8681 
0.000107710      1.53584     -81.7644 
0.000203562      5.76999     -73.0725 
-3.12668e-05     0.744312     -120.700 
-0.000103804      1.77133     -115.408 
5.89858e-05      10.0097     -69.8995 
0.000133930     0.601332     -93.8141 
6.00973e-05      3.53638     -84.4829 
1.54615e-05      8.12180     -82.9275 
-0.000209415      4.16125     -95.7928 
0.000146238      10.0245     -71.7458 
-0.000279577      3.97160     -82.7676 
5.62132e-05      5.99446     -79.8148 
-0.000527930     0.727186     -121.504 
-0.000151936      2.66120     -88.2773 
-0.000370958      3.75542     -67.1219 
1.51872e-05      6.43292     -68.8602 
-0.000153830      3.64401     -100.755 
-0.000150413      3.99400     -82.5191 
5.63964e-05      3.53836     -84.1605 
-0.000114350     0.228035     -142.125 
0.000102717      5.28008     -94.9979 
0.000162886      6.29971     -72.2553 
0.000143943      8.64419     -80.2762 
5.81430e-05      8.13683     -83.2243 
7.94283e-05      8.47908     -75.7999 
0.000132149      7.30331     -81.3373 
0.000251304      6.55762     -73.8866 
4.37404e-05      9.19761     -72.6683 
0.000101511      3.40129     -96.4146 
-0.000255128     0.584123     -128.047 
1.47756e-05      1.73954     -98.5959 
0.000144631      5.01538     -71.6373 
0.000235386      7.23671     -64.2848 
2.86044e-05      7.93667     -68.4131 
5.08482e-05      1.11463     -99.2933 
0.000120829      8.83387     -82.5854 
6.44852e-05      3.20031     -83.5412 
0.000317096      6.09452     -68.2335 
5.09060e-05      7.46922     -84.9306 
0.000106742      7.36484     -67.8230 
0.000247335      4.09497     -100.981 
-0.000144753      7.09775     -68.8582 
6.80955e-05      9.91782     -74.5625 
5.45590e-05      6.44745     -68.5286 
0.000147743      4.15736     -69.7343 
0.000161445      5.11973     -79.8753 
-0.000207524     0.161245      82.8750 
0.000212873      7.91275     -72.3436 
-0.000212316      7.62071     -63.8384 
5.27506e-05      7.21692     -69.0537 
0.000161487      1.90704     -80.3401 
0.000290121      2.54071     -91.3532 
-4.14897e-05      6.25082     -67.6199 
0.000200949      3.90948     -80.8750 
7.42200e-05      1.73666     -97.9435 
-7.83975e-05      6.30546     -66.4435 
2.77618e-05      5.80169     -88.6173 
0.000117437      6.79214     -82.8959 
6.80026e-05      8.57555     -84.7814 
0.000100398      6.17715     -94.2707 
6.53720e-05      8.02399     -85.5684 
5.15005e-05      8.13479     -75.6221 
-0.000229435      4.66429     -92.4575 
-0.000303223      2.50511     -86.3381 
3.90919e-05      9.21078     -72.8241 
8.37001e-05      6.12082     -89.0639 
2.60084e-05      5.50462     -84.5794 
0.000106708      5.62953     -79.7680 
0.000101809      7.37271     -83.1449 
1.38938e-05      3.74646     -93.3665 
-0.000205571      1.78000     -115.989 
6.54731e-05      5.84168     -88.6267 
7.61369e-05      6.67533     -81.3844 
-0.000298299     0.244131     -145.008 
-0.000141261      5.38984     -79.5240 
0.000151209      3.38024     -81.1507 
9.90815e-05      8.05712     -69.3607 
7.54811e-05      4.84413     -87.6338 
1.37011e-05      3.92128     -65.9188 
1.36807e-05      8.11936     -83.0675 
2.65326e-05      8.00265     -74.1923 
8.30118e-05      2.01137     -109.156 
1.35474e-05      5.03353     -83.3833 
7.85721e-05      3.00413     -82.7330 
7.77075e-05      4.87975     -66.0614 
0.000128674      7.36695     -87.5104 
7.91003e-05      7.11148     -78.1528 
-9.36478e-05      4.00210     -96.0240 
0.000192418      9.59504     -77.8469 
8.26064e-05      5.26972     -86.5186 
0.000121838      9.22267     -72.5867 
5.16203e-05      8.11697     -83.2077 
0.000130703      1.14018     -111.615 
-0.000235547      2.33041     -84.5830 
8.32733e-05      5.04480     -76.2392 
-0.000147600      3.86005     -69.6872 
3.55412e-05      3.91316     -66.1862 
0.000136631      10.0028     -70.0071 
-0.000319200     0.160000      90.0000 
-5.91734e-05      7.76093     -89.1141 
-0.000191685      5.02494     -79.4504 
4.86036e-05      7.41242     -71.7606 
0.000179867      8.57375     -84.9145 
-0.000233205      6.46792     -92.8359 
3.59353e-05      3.71117     -82.5686 
-0.000170609      1.96977     -113.962 
0.000125695      8.13449     -80.3756 
5.57687e-05      4.12311     -87.7760 
0.000176105      6.19112     -84.2526 
-0.000198859      5.76586     -92.5845 
7.13570e-05      3.51648     -84.4515 
-0.000118873      4.61788     -75.9638 
9.92923e-05      3.33958     -107.784 
9.98760e-05      5.27523     -70.7407 
-0.000198620      3.65645     -100.081 
7.79272e-05      6.69197     -93.4268 
9.96908e-05      5.00064     -89.0833 
-0.00121710    0.0447214      153.435 
0.000141193      5.82168     -88.6220 
0.000153667      5.15713     -85.3286 
2.41682e-05      4.60196     -97.7427 
9.92320e-05      8.58438     -72.7893 
0.000150761      6.45480     -68.3634 
-1.23829e-05      3.52415     -62.9987 
9.73396e-05      4.64155     -88.5185 
-0.000142539      9.75428     -69.2240 
0.000971996     0.141421      135.000 
9.80116e-05      1.29120     -106.189 
6.97628e-05      8.11463     -83.3479 
0.000207768      4.88790     -65.8471 
7.71475e-05      6.12118     -88.8767 
5.58958e-05      7.92934     -68.5475 
0.000120772     0.752861     -106.991 
5.50742e-05      8.00812     -74.0546 
-8.82988e-05      4.69506     -78.4507 
0.000131717      6.94648     -92.4752 
8.66644e-05      4.10366     -79.8950 
1.20078e-05      6.76027     -80.1197 
5.68403e-05      9.94780     -74.3711 
6.76284e-05      7.35731     -67.9672 
3.30140e-05      8.31733     -70.9115 
-0.000158697      5.04020     -65.8759 
-0.000107123      4.48754     -93.3215 
-6.39942e-05      6.31348     -66.2771 
-0.000118660      1.45890     -118.673 
-0.000149583      3.13847     -96.2192 
2.24614e-05      3.74048     -90.9191 
2.27103e-05      6.86944     -86.9960 
3.26680e-05      7.30033     -81.4925 
2.28491e-05      2.22729     -94.6355 
0.000138066      9.60471     -69.9048 
1.17358e-05      3.65557     -66.8014 
-0.000127588      3.56320     -106.299 
-0.000117532      2.18660     -81.0546 
7.52356e-05      6.75686     -80.2867 
2.21567e-05     0.254558     -45.0000 
4.31648e-05      8.02247     -85.7108 
2.19866e-05      7.35266     -69.7905 
-5.42993e-05      2.64030     -89.1319 
2.20067e-05      7.19347     -86.4932 
5.34275e-05      6.78145     -91.1829 
2.20026e-05      6.66675     -87.4209 
6.10375e-05     0.878635     -78.1785 
8.39121e-05      8.20198     -66.1226 
-0.000352427     0.161245      97.1250 
-0.000176379      2.96547     -93.4799 
2.16787e-05      7.27472     -81.7808 
-5.22698e-05      2.69258     -74.9315 
5.23043e-05      7.00925     -87.0560 
8.24387e-05      5.00911     -71.8544 
1.11341e-05      9.21670     -72.7053 
2.19065e-05      4.94336     -95.5722 
2.16442e-05      4.24099     -77.4712 
4.05786e-05      1.40698     -84.2894 
4.17015e-05      6.10013     -77.6953 
0.000111574      3.17043     -73.5085 
-0.000123290      1.06452     -115.602 
1.09329e-05      2.06010     -90.5563 
-0.000122888      4.59848     -75.9033 
6.21001e-05      8.11234     -83.4882 
1.09000e-05      5.99096     -80.0031 
6.15581e-05      3.08006     -90.3720 
-3.07233e-05      2.85748     -74.9911 
5.05187e-05      6.60049     -90.6945 
3.03201e-05      7.35959     -69.6444 
0.000120658     0.617414     -114.905 
3.07169e-05      3.49657     -84.4198 
4.00674e-05      8.06419     -69.2277 
7.98404e-05      2.16009     -89.4695 
5.05008e-05      4.92544     -95.8263 
4.96314e-05      7.24541     -64.1423 
3.00075e-05      8.28987     -75.8967 
-5.05593e-05      2.26433     -109.075 
4.03592e-05      5.26015     -95.0169 
-7.98987e-05      3.02761     -74.6785 
2.01392e-05      1.53883     -81.0274 
-5.99009e-05      6.45204     -76.7391 
1.04839e-05      8.30241     -80.9915 
2.98906e-05      3.16986     -100.176 
-5.01805e-05      6.21717     -67.8906 
5.97782e-05      9.22401     -72.9795 
-3.99594e-05      2.87924     -106.547 
-8.99819e-05      1.78885     -116.565 
1.98866e-05      6.30584     -72.0822 
3.96159e-05      7.34983     -68.1117 
1.03147e-05      8.47420     -75.9310 
3.96995e-05      5.04008     -76.4600 
3.95980e-05      9.95321     -74.2602 
2.02971e-05      3.15017     -100.240 
-5.89923e-05      4.34203     -101.155 
-6.84685e-05      1.00020     -78.4654 
3.93751e-05      8.30556     -80.8552 
3.95155e-05      7.55749     -76.2212 
1.01847e-05      1.52971     -101.310 
3.91604e-05      2.01802     -109.692 
2.95570e-05      4.21716     -77.6775 
2.94678e-05      8.26337     -69.8984 
0.000107460     0.164924     -165.964 
1.96943e-05      5.91422     -70.6459 
2.90663e-05      1.74287     -93.2892 
1.95245e-05      8.11815     -80.2128 
9.99808e-06      7.48866     -70.9844 
9.96581e-06      7.92204     -68.6821 
1.96205e-05      8.54740     -77.9802 
3.90760e-05      4.98293     -64.5663 
9.93302e-06      7.22357     -75.0788 
9.88608e-06      7.24997     -68.8150 
3.86323e-05      4.09121     -100.706 
1.94544e-05      3.38615     -97.1250 
9.86349e-06      1.73401     -97.2890 
-1.93519e-05      6.21884     -65.0833 
2.90442e-05      6.94565     -92.3104 
-1.92313e-05      9.57507     -81.1083 
9.76425e-06      8.13786     -80.2367 
1.92100e-05      6.75352     -80.4540 
1.92702e-05      8.11009     -83.6286 
9.64290e-06      7.22875     -74.9256 
9.64846e-06      7.19472     -86.3342 
9.62423e-06      6.66588     -87.5926 
-1.92002e-05      1.97798     -114.492 
1.90832e-05      1.02020     -88.8767 
-9.63295e-06      1.82275     -86.8550 
-1.91029e-05      3.64911     -97.2419 
9.55197e-06      3.25969     -75.7932 
9.51983e-06      8.70687     -81.0137 
9.50837e-06      7.27761     -81.6249 
9.50614e-06      8.03841     -73.8196 
9.48097e-06      3.36048     -81.0983 
-9.45616e-06      4.69110     -78.6901 
0.000245767      6.33141     -93.4409 
0.000184999      8.10856     -85.1894 
2.81908e-05      6.50012     -89.6474 
2.76597e-05      6.29539     -94.0078 
9.16066e-05      6.27688     -94.2027 
2.61347e-05      1.85084     -96.2034 
2.60362e-05      6.54110     -88.9488 
0.000144751      6.25693     -94.2161 
5.04448e-05      1.83096     -96.2711 
2.53531e-05      6.58194     -88.6071 
0.000143790      3.55629     -84.5138 
2.47118e-05      6.60245     -88.4378 
4.83504e-05      1.78908     -95.7743 
2.41992e-05      8.25099     -82.4788 
0.000138178      9.66364     -75.1297 
2.40635e-05      6.62302     -88.2695 
4.67189e-05      5.59292     -86.1042 
2.36396e-05      7.72010     -73.4429 
2.36914e-05      8.10531     -85.4712 
2.34772e-05      6.66432     -87.9362 
2.33727e-05      1.76918     -95.8395 
2.32801e-05      8.27345     -82.3596 
2.33081e-05      7.72583     -73.3008 
2.29078e-05      8.10225     -85.7532 
4.48719e-05      6.72583     -87.6141 
2.29093e-05      7.75655     -73.0602 
2.28401e-05      1.74929     -95.9061 
2.26991e-05      7.15436     -78.8785 
2.24755e-05      8.29595     -82.2411 
2.24640e-05      7.76829     -72.7780 
2.23811e-05      6.96589     -85.0588 
2.23739e-05      1.68760     -95.4403 
4.38787e-05      5.57297     -86.0902 
2.22059e-05      8.10079     -85.8942 
2.21267e-05      7.79333     -72.6811 
2.19165e-05      1.62604     -94.9392 
2.18357e-05      8.33830     -82.1420 
2.17920e-05      7.09639     -79.6085 
4.30410e-05      7.79931     -72.5408 
4.30196e-05      3.51460     -84.7761 
4.27659e-05      8.09938     -86.0353 
0.000216104      4.26483     -66.8014 
6.33940e-05      9.64431     -75.0992 
2.14610e-05      6.72503     -87.7843 
2.13945e-05      1.54467     -94.4556 
2.12304e-05      7.01113     -84.5984 
2.10921e-05      5.57437     -85.8851 
2.09809e-05      1.99449     -96.9112 
2.09552e-05      7.27805     -77.3004 
4.15114e-05      3.49291     -85.0729 
2.09071e-05      7.83045     -72.3055 
2.09376e-05      8.38067     -82.0439 
6.13946e-05      6.29682     -94.1893 
2.07989e-05      6.74501     -87.7909 
2.05876e-05      1.48337     -93.8655 
4.08012e-05      7.83656     -72.1662 
0.000169481      8.09802     -86.1765 
2.05079e-05      7.00377     -81.1294 
4.03636e-05      5.55442     -85.8703 
2.03897e-05      9.61985     -75.1837 
2.02673e-05      6.70361     -88.1193 
2.02222e-05      3.47298     -85.0446 
2.02172e-05      8.40048     -82.0628 
2.01712e-05      1.46342     -93.9182 
5.90713e-05      9.60052     -75.1532 
1.99757e-05      7.00688     -80.9679 
5.88385e-05      3.45138     -85.3466 
3.95367e-05      7.86173     -72.0721 
1.98616e-05      2.05407     -96.7098 
3.89508e-05      7.00086     -85.5762 
0.000117110      6.31677     -94.1761 
1.95114e-05      8.46267     -81.9848 
1.94531e-05      6.70242     -88.4611 
1.94138e-05      7.25854     -77.2657 
5.62702e-05      5.55590     -85.6646 
1.91941e-05      7.87413     -71.7952 
1.91174e-05      2.07393     -96.6453 
5.61514e-05      9.58119     -75.1225 
7.37887e-05      3.42987     -85.6525 
1.89240e-05      7.89314     -71.8405 
3.74858e-05      1.38362     -94.1446 
1.89403e-05      8.50228     -82.0224 
1.88606e-05      6.99354     -80.6185 
0.000201273      6.33672     -94.1629 
3.70287e-05      7.89939     -71.7027 
1.86046e-05      6.72241     -88.4657 
3.65902e-05      4.28322     -66.9068 
1.84397e-05      6.99683     -80.4569 
1.83671e-05      8.52209     -82.0410 
1.83900e-05      2.11367     -96.5198 
1.82032e-05      7.01783     -85.9144 
0.000121908      5.94811     -73.3930 
1.80787e-05      7.26746     -76.9581 
5.23403e-05      3.40993     -85.6271 
1.80367e-05      1.36367     -94.2054 
3.57838e-05      9.56186     -75.0917 
5.30139e-05      7.92467     -71.6108 
3.57335e-05      4.87791     -65.5366 
1.80037e-05      6.70146     -88.8029 
1.78048e-05      1.34373     -94.2679 
1.77899e-05      8.56171     -82.0781 
1.77721e-05      5.51601     -85.6332 
1.76751e-05      7.03923     -85.7636 
1.76372e-05      2.13588     -96.9919 
1.76064e-05      7.24348     -77.0765 
1.74480e-05      6.72190     -88.6361 
3.45762e-05      1.32378     -94.3323 
0.000116806      4.88623     -65.3231 
6.77479e-05      9.56703     -74.9760 
1.73513e-05      5.49458     -85.8252 
3.40178e-05      6.97057     -80.7539 
4.97204e-05      6.35667     -94.1498 
1.71963e-05      8.60133     -82.1148 
1.71459e-05      6.72146     -88.8065 
0.000114430      8.07807     -86.1671 
3.36009e-05      7.30068     -76.5348 
3.33720e-05      2.15574     -96.9272 
3.36876e-05      7.94997     -71.5195 
1.68961e-05      7.05773     -85.9375 
1.69155e-05      4.24646     -66.6951 
1.68440e-05      5.47463     -85.8100 
3.33588e-05      1.30384     -94.3987 
3.29471e-05      3.91740     -82.0767 
1.67156e-05      8.64095     -82.1512 
1.66229e-05      6.72107     -88.9770 
1.64736e-05      5.96728     -73.4479 
1.64466e-05      5.45469     -85.7946 
3.24784e-05      6.74145     -88.8101 
1.64121e-05      4.22810     -66.5879 
1.63833e-05      3.38851     -85.9385 
1.63731e-05      7.95633     -71.3829 
1.62289e-05      6.94449     -81.0531 
6.20245e-05      8.68058     -82.1873 
3.22501e-05      1.28390     -94.4672 
0.000192675      5.97301     -73.2640 
4.76317e-05      9.55293     -74.8290 
1.61208e-05      5.43474     -85.7792 
4.70179e-05      7.98168     -71.2926 
1.59678e-05      7.30537     -76.3822 
1.59343e-05      7.07630     -86.1105 
1.59302e-05      4.20975     -66.4797 
1.58988e-05      3.36856     -85.9144 
3.11348e-05      2.17559     -96.8637 
1.57946e-05      6.04599     -84.6855 
0.000105714      4.89461     -65.1104 
1.57041e-05      3.93721     -82.1169 
1.56609e-05      6.94763     -80.8902 
1.55979e-05      5.41479     -85.7636 
2.66348e-05      4.19142     -66.3706 
1.56155e-05      6.74074     -89.1500 
3.07080e-05      7.95218     -86.8282 
3.05326e-05      7.31010     -76.2299 
1.54245e-05      3.34724     -86.2315 
1.54205e-05      7.98812     -71.1568 
3.05328e-05      1.24403     -94.6106 
4.55877e-05      8.90972     -67.9836 
1.53410e-05      6.76106     -88.9830 
1.52899e-05      9.57223     -74.8604 
3.03215e-05      5.39485     -85.7479 
1.52267e-05      4.17310     -66.2606 
1.52633e-05      7.11489     -86.2931 
1.51445e-05      3.95702     -82.1566 
2.92294e-05      8.70039     -82.2052 
1.50785e-05      6.74047     -89.3200 
2.96252e-05      9.59154     -74.8916 
4.12667e-05      4.15480     -66.1495 
5.86334e-05      7.95110     -86.9721 
1.49572e-05      3.32728     -86.2088 
1.48620e-05      6.10760     -84.5508 
4.37808e-05      1.22409     -94.6859 
1.48329e-05      6.92474     -81.0274 
2.91949e-05      2.19545     -96.8013 
1.47911e-05      9.61085     -74.9227 
2.92598e-05      8.01351     -71.0676 
8.59275e-05      8.91724     -67.8645 
1.47696e-05      5.37490     -85.7321 
1.47327e-05      6.78074     -89.1550 
1.46710e-05      3.97683     -82.1959 
4.28406e-05      7.33913     -75.9638 
2.88080e-05      5.35496     -85.7162 
1.45584e-05      6.80106     -88.9890 
1.44691e-05      4.11825     -65.9245 
1.44452e-05      3.30606     -86.5318 
1.44056e-05      7.13358     -86.4637 
1.43968e-05      8.68332     -82.0565 
1.43815e-05      9.82344     -75.2564 
0.000136015      4.90306     -64.8984 
1.42633e-05      6.76027     -89.4915 
1.42362e-05      4.10000     -65.8105 
1.42226e-05      6.12751     -84.5685 
1.41961e-05      9.45600     -73.7883 
2.81377e-05      8.02002     -70.9325 
5.56056e-05      7.95007     -87.1160 
1.41350e-05      6.90498     -81.0015 
2.78978e-05      1.20416     -94.7636 
3.66940e-05      5.85809     -94.5037 
1.40312e-05      4.08176     -65.6955 
2.78091e-05      5.33502     -85.7001 
1.40216e-05      6.78027     -89.4930 
1.40214e-05      9.84278     -75.2861 
1.39792e-05      3.30733     -86.1859 
1.39407e-05      6.39656     -94.1239 
4.03707e-05      2.21531     -96.7401 
6.65151e-05      8.70313     -82.0747 
1.38271e-05      7.11126     -86.7755 
1.37819e-05      9.42889     -73.4870 
1.37739e-05      4.04534     -65.4623 
5.35844e-05      6.41651     -94.1111 
1.37569e-05      8.89872     -67.8160 
1.37390e-05      4.01383     -82.5563 
1.36818e-05      6.13143     -84.1964 
1.36545e-05      9.85708     -75.4280 
2.71545e-05      6.78003     -89.8310 
4.01130e-05      5.31507     -85.6840 
1.36191e-05      4.00899     -65.2249 
2.47220e-05      5.89797     -94.4732 
2.66570e-05      8.05206     -70.7100 
2.68147e-05      3.28609     -86.5107 
1.35406e-05      7.34400     -75.8124 
1.35738e-05      8.92480     -67.7456 
3.97509e-05      1.18423     -94.8440 
1.34697e-05      9.41543     -73.3357 
3.96621e-05      7.94909     -87.2600 
1.34230e-05      6.88523     -80.9755 
1.33686e-05      4.03366     -82.5931 
7.76095e-05      8.90629     -67.6968 
1.33133e-05      8.04547     -70.8444 
1.33226e-05      9.87644     -75.4572 
2.63342e-05      6.80012     -89.6630 
1.32199e-05      7.36831     -75.6997 
0.000120220      5.99216     -73.3191 
1.31888e-05      3.90036     -64.4861 
1.32004e-05      5.81821     -94.5347 
1.31367e-05      9.40204     -73.1840 
1.30854e-05      4.03113     -82.8750 
1.30452e-05      3.88232     -64.3590 
1.30695e-05      6.03327     -82.3803 
1.29985e-05      7.17231     -86.6429 
8.37106e-05      9.89580     -75.4863 
0.000200927      4.91158     -64.6871 
2.56866e-05      5.29513     -85.6677 
1.28869e-05      6.43646     -94.0983 
2.53535e-05      6.86236     -81.1142 
1.28957e-05      3.86430     -64.2307 
5.03729e-05      7.94816     -87.4040 
6.11703e-05      5.83815     -94.5191 
1.28256e-05      4.05098     -82.9101 
2.39220e-05      8.05868     -70.5757 
1.28110e-05      9.38872     -73.0319 
1.27943e-05      6.80000     -90.0000 
2.53043e-05      3.84630     -64.1011 
2.52415e-05      3.26497     -86.8396 
3.67004e-05      7.37328     -75.5491 
1.26819e-05      6.45641     -94.0856 
1.26703e-05      6.01890     -81.9776 
3.72571e-05      1.16430     -94.9271 
7.03262e-05      2.21775     -97.2532 
2.49913e-05      6.82003     -89.8320 
2.48077e-05      4.07082     -82.9448 
2.48167e-05      8.09765     -70.2224 
2.47694e-05      9.36226     -72.7263 
3.69694e-05      5.27519     -85.6513 
4.82032e-05      6.47636     -94.0730 
2.46863e-05      8.70591     -81.9444 
1.24547e-05      3.82832     -63.9704 
1.23229e-05      6.00193     -81.7619 
8.19021e-05      8.91390     -67.5779 
1.22481e-05      7.16904     -87.1216 
2.43810e-05      3.81035     -63.8384 
1.21641e-05      8.88779     -67.6479 
3.54824e-05      6.49631     -94.0605 
2.41285e-05      7.94728     -87.5480 
1.21156e-05      6.82000     -90.0000 
1.20796e-05      9.45016     -76.7873 
1.20752e-05      4.09067     -82.9792 
1.20829e-05      8.10444     -70.0894 
1.20309e-05      3.24500     -86.8202 
1.19995e-05      7.34893     -75.6612 
1.20008e-05      8.66630     -81.9073 
1.19903e-05      3.79241     -63.7052 
1.19635e-05      6.00483     -81.5730 
1.19582e-05      6.82003     -90.1680 
3.53185e-05      5.25525     -85.6347 
2.36119e-05      1.14438     -95.0131 
2.33122e-05      6.84260     -81.0883 
1.18210e-05      4.13652     -66.0375 
1.18326e-05      9.34914     -72.5729 
2.34181e-05      4.10814     -83.2902 
1.18145e-05      8.15078     -69.6085 
3.48972e-05      7.94645     -87.6921 
2.33779e-05      6.84000     -90.0000 
2.33491e-05      3.75659     -63.4349 
3.40124e-05      3.24395     -87.1729 
1.17141e-05      8.68610     -81.9259 
1.16819e-05      5.99106     -81.1666 
1.16100e-05      8.25244     -68.5338 
2.28802e-05      9.35515     -72.4560 
1.15221e-05      9.41713     -77.1148 
1.15031e-05      7.20899     -87.1376 
3.36855e-05    0.0894427      63.4349 
3.39583e-05      5.23530     -85.6181 
2.26814e-05      1.12641     -96.1155 
1.14466e-05      8.28575     -68.3270 
2.26102e-05      8.61267     -81.5877 
3.39101e-05      3.73872     -63.2979 
2.25930e-05      4.12800     -83.3226 
1.13585e-05      6.25843     -85.6013 
1.13662e-05      9.90083     -75.3743 
1.13254e-05      5.87803     -94.4884 
1.13180e-05      7.40270     -75.2880 
1.12998e-05      6.84012     -90.3351 
3.33632e-05      7.94567     -87.8362 
1.12655e-05      8.29315     -68.1986 
1.12565e-05      6.51626     -94.0480 
1.12184e-05      5.95785     -80.7274 
1.11475e-05      6.88000     -90.0000 
1.10655e-05      6.84573     -80.9229 
1.10328e-05      9.34214     -72.3021 
2.18743e-05      5.21536     -85.6013 
1.09835e-05      7.18713     -87.4481 
1.09898e-05      7.37829     -75.3987 
2.18144e-05      8.92155     -67.4592 
1.09719e-05      1.14630     -96.0090 
1.09751e-05      8.65224     -81.6264 
1.09616e-05      5.96111     -80.5377 
1.09850e-05      3.72086     -63.1595 
1.09346e-05      4.14787     -83.3547 
1.09545e-05      8.30060     -68.0704 
1.08809e-05      6.86012     -90.3341 
1.08750e-05      3.70303     -63.0198 
1.08300e-05      9.38878     -77.3256 
