! Center RA: 12 29 06.69973,  Dec: +02 03 08.59828 (2000.0)
! Tentative model.
! Flux (Jy) Radius (mas)  Theta (deg)  Major FWHM (mas)  Axial ratio   Phi (deg) T \
! Freq (Hz)     SpecIndex
 0.0275827     0.107703     -158.199 
0.00242111     0.205913     -150.945 
0.00114985     0.223607     -153.435 
 0.0108300    0.0824621     -165.964 
 0.0180720     0.250599     -151.390 
0.00348728    0.0632456     -161.565 
 0.0180441    0.0600000      180.000 
 0.0152198     0.277849     -149.744 
0.000954208     0.295296     -151.699 
0.00786415     0.816088     -143.973 
0.00210969      1.24258     -146.821 
0.00272240     0.844038     -143.673 
0.00400300      1.25936     -147.319 
0.00206293      1.27028     -146.560 
0.00347939     0.384187     -141.340 
0.00425337      1.28701     -147.051 
0.000720926    0.0400000      180.000 
0.00120098     0.860233     -144.462 
0.000492333     0.800000     -143.130 
0.00173623    0.0632456      161.565 
0.00148737     0.233238     -149.036 
0.000409525     0.724707     -140.599 
0.00160002      9.10806     -141.419 
0.000125083      9.12371     -141.497 
0.000987017     0.382099     -137.121 
0.000558635     0.709366     -139.574 
0.000353067      8.93613     -142.822 
0.000439044     0.876584     -145.222 
0.000741194      8.96415     -142.798 
0.00192094     0.188680     -147.995 
0.000972058      1.04403     -126.431 
0.00108510      1.30384     -147.529 
0.00137059    0.0894427      153.435 
0.000595068      9.18801     -143.230 
-0.00108192      10.0487     -132.742 
0.000735495     0.893085     -145.954 
0.000787338      2.76449     -142.052 
-0.00133858      3.05110     -122.961 
0.000184115     0.694262     -138.504 
0.000513597      8.94823     -142.720 
0.000595408      1.36015     -109.767 
0.000336473      1.22147     -129.685 
8.80935e-05      8.86803     -142.975 
0.000332510      9.12055     -141.321 
8.55362e-05      2.78352     -140.247 
0.000166193     0.681175     -139.764 
-0.00143583      2.78862     -120.611 
-0.00235942     0.233238      30.9638 
0.000678217      2.79893     -140.509 
-0.000449722     0.424264      135.000 
0.00185653     0.375766      64.7989 
0.000354174      1.23693     -129.094 
0.000222572      1.34833     -110.854 
0.000330621     0.666033     -138.652 
7.61094e-05      8.97626     -142.696 
0.000215515      9.44934     -140.583 
0.000264771      1.43122     -146.976 
0.000141227      8.84002     -143.000 
7.33548e-05      9.11748     -141.144 
0.000549431      2.75224     -142.381 
0.000404252      8.96036     -142.619 
0.000553163      1.79287     -141.340 
0.000799314      9.45213     -140.753 
7.03924e-05      9.13004     -141.046 
0.000502334      1.34134     -110.056 
0.000922591     0.909725     -146.659 
-0.000550511      10.0634     -132.664 
0.000129927      1.58808     -126.293 
-0.00108135     0.412311      129.094 
0.000572074      8.23293     -143.993 
0.000656549      2.81169     -140.194 
0.000304321      9.11449     -140.967 
0.000386321      1.37637     -125.538 
0.000121314      9.14400     -143.180 
0.000183460      8.51474     -141.676 
-0.000160960     0.660303     -1.73570 
0.000278175      1.24964     -129.806 
-0.000515836      3.10876     -130.042 
6.07918e-05      9.43665     -140.676 
-0.000338473      2.26318     -115.659 
0.00180600      9.60854     -138.713 
0.000534166      1.03228     -125.538 
0.000213399      8.81201     -143.026 
5.95133e-05      1.57442     -115.589 
0.000170024      8.20500     -144.024 
-0.000116147     0.360555      3.17983 
0.00106429      8.52716     -141.571 
-0.00179368      1.26143     -154.654 
0.000214111      8.94447     -142.541 
0.000672516     0.116619      149.036 
0.000162399      1.56589     -114.928 
5.58915e-05      1.44803     -147.407 
0.000845914      1.27624     -147.804 
5.33760e-05      1.45890     -146.746 
-0.00115542      2.25397     -116.338 
0.000851085      2.82708     -140.454 
-0.000335557      9.82381     -132.525 
0.000234256     0.651153     -137.490 
-0.000665388     0.340588      3.36646 
0.000442066      9.12710     -140.870 
0.000353716      8.22119     -144.106 
0.000189645      1.80854     -141.736 
0.000144509      1.33462     -109.250 
0.000246080      9.11127     -141.596 
-0.000142915      10.0770     -132.748 
0.000495596      9.26984     -137.186 
9.67452e-05      1.55756     -114.261 
0.000334690      1.47567     -147.171 
4.85691e-05      9.17200     -143.155 
0.000136305      8.92861     -142.463 
0.000215797      1.57632     -125.707 
0.000595280     0.297321      70.3462 
-0.00106766      9.81030     -132.439 
0.000612880     0.368782     -139.399 
0.000134474      2.72419     -142.457 
0.000527992     0.926499     -147.339 
0.000272633      1.37201     -126.703 
0.000685838     0.172047     -144.462 
4.48989e-05      1.54945     -113.587 
8.50436e-05      9.15600     -143.080 
8.58545e-05      1.26507     -129.226 
-0.000464633      10.1268     -134.200 
0.000191710      1.50785     -111.801 
-8.44313e-05      2.87360     -128.784 
-0.00139534     0.244131      34.9920 
4.29614e-05      8.81601     -143.208 
-0.000388567     0.404969      122.905 
4.23474e-05      1.32966     -111.161 
0.000219796      1.83663     -141.633 
0.000327146      2.70836     -142.199 
0.000184239      1.32620     -113.085 
-0.000234710     0.557853      165.466 
-0.000783448      10.2856     -133.345 
0.000362133     0.636553     -136.273 
-0.000153247      2.91431     -129.151 
0.000115989      8.54468     -143.854 
7.83147e-05      8.97251     -142.517 
0.000111591      8.80000     -143.130 
0.000555612      9.25518     -137.102 
3.95642e-05      1.54156     -112.906 
0.000754420    0.0721110      146.310 
-0.000195399      3.09593     -129.758 
0.000189458     0.100000      143.130 
0.000105349      2.91733     -141.402 
0.000171383      1.27781     -129.920 
0.000321865     0.291204      74.0546 
0.000107736      9.46763     -140.830 
-0.000342279     0.228035      37.8750 
0.000197174      8.95665     -142.439 
-0.000677209     0.538516      164.932 
0.000284529      8.52854     -143.775 
-0.000553441      2.92698     -129.455 
-0.000689421      8.73984     -135.000 
6.62149e-05      1.53388     -112.218 
3.47685e-05      9.52599     -140.025 
0.000727697     0.943398     -147.995 
0.000124900      2.93298     -141.645 
-0.000832447     0.411825      119.055 
9.76787e-05      1.32197     -107.613 
0.00102062     0.263059      81.2538 
0.000291764      8.24912     -144.075 
6.48152e-05      9.48314     -140.906 
0.000339719      8.43614     -127.196 
0.000139289     0.113137     -135.000 
0.000169167      1.85235     -142.017 
0.000840021     0.323110     -21.8014 
-0.000141847      9.72934     -130.665 
3.16748e-05      8.78401     -143.052 
6.10744e-05      9.54132     -140.102 
0.000197839      1.49251     -147.588 
0.000116945      8.47627     -142.670 
-0.000512520      7.63364     -131.920 
0.000106220      1.36821     -127.875 
0.000441067      5.30091     -140.665 
-0.000374158      2.00010     -130.539 
3.05656e-05      2.69258     -141.938 
-0.000260647      9.67736     -133.325 
0.000205655      9.49867     -140.982 
2.99472e-05      9.12406     -142.929 
0.000252497      1.31590     -114.228 
0.000216397      8.53960     -141.466 
0.000308082      5.12016     -134.050 
-0.000225654      5.91006     -144.643 
0.000569319     0.398497      72.4744 
-0.000739836     0.320624      3.57633 
0.000204090      2.64877     -141.746 
-0.000375479      9.43900     -130.101 
5.67693e-05      1.50053     -111.092 
-2.88302e-05      3.07877     -123.071 
-0.000172038      7.63217     -132.132 
0.000173268      1.29321     -129.352 
0.000105906      1.31605     -106.783 
5.53725e-05      9.10811     -142.853 
-2.81387e-05      7.64701     -132.032 
0.000154675      8.52397     -141.382 
8.08760e-05      2.99252     -142.058 
5.32146e-05      9.55667     -140.179 
-0.000497567     0.651460     -162.121 
2.66264e-05      8.49605     -142.941 
0.000333892      2.79635     -139.932 
0.000189520      3.24863     -142.001 
-0.000185912      3.08972     -123.381 
4.98137e-05      8.86815     -140.674 
-7.40477e-05      2.08586     -104.436 
-0.000360568      2.26292     -116.792 
0.000242071      2.41603     -143.415 
2.58610e-05    0.0721110     -123.690 
-7.14219e-05      7.46268     -132.067 
2.56374e-05      9.09217     -142.777 
-0.000159030      1.24338     -154.259 
0.000135695      8.46038     -142.588 
0.000238576      1.50333     -146.944 
0.000105996      3.00832     -142.292 
2.50231e-05      9.00056     -142.494 
-0.000771025     0.223607     -79.6952 
2.49009e-05      8.40831     -139.147 
0.000191655      8.51241     -143.696 
0.000145260      1.32136     -129.472 
0.000156481      9.23959     -136.842 
0.000129252      8.88363     -140.756 
9.32259e-05      1.32966     -105.709 
0.000221556      2.84345     -136.425 
-0.000394035     0.533667      167.005 
0.000134325      8.39319     -139.058 
2.40163e-05      9.07625     -142.701 
6.88555e-05      9.57204     -140.256 
9.09564e-05    0.0565685      135.000 
-0.000221839      3.08058     -129.996 
0.000236286      8.42406     -127.088 
-0.000264889      4.76017     -138.406 
0.000490140     0.260768      85.6013 
-0.000354964      2.01316     -130.972 
0.000102003      1.88043     -141.911 
2.28778e-05      9.15301     -142.279 
-0.000176889      2.06649     -104.574 
-0.000189963     0.483735      119.745 
-0.000116318      9.71632     -130.576 
8.58571e-05      2.76875     -147.688 
2.22854e-05      9.10428     -142.677 
0.000310987      8.60702     -125.352 
0.000218994      8.24837     -136.670 
0.000290328      2.62975     -124.778 
0.000321960      5.10580     -134.206 
0.000170690      5.31639     -140.802 
2.15328e-05      1.62012     -118.780 
0.000226830      1.32439     -104.876 
-0.000205780      10.2711     -133.422 
0.000192546      5.34734     -139.399 
2.12593e-05      9.15664     -142.454 
0.000207527      9.58743     -140.332 
-0.000115144      5.71405     -135.851 
4.03557e-05      9.14079     -142.378 
0.000111762      3.23289     -141.783 
-9.40770e-05      9.91486     -134.101 
0.000113028      3.45254     -136.878 
-2.01810e-05     0.680000      0.00000 
-5.89840e-05      8.29595     -128.638 
0.000129665      2.78568     -147.907 
2.01240e-05      1.49345     -110.376 
0.000182764      2.82652     -153.979 
9.44765e-05      5.85676     -140.821 
-3.86843e-05     0.367151     -60.6422 
7.55704e-05     0.501199     -28.6105 
0.000182345      7.93476     -134.081 
5.64103e-05      8.96886     -142.338 
-0.000180643     0.493964      121.759 
-9.06140e-05      4.83231     -140.711 
3.81049e-05      8.07371     -138.213 
3.72789e-05     0.622254     -135.000 
0.000144151      5.44797     -145.318 
7.36465e-05      8.44450     -142.506 
5.39753e-05      1.32424     -115.017 
0.000124266      8.53646     -141.277 
-0.000142401     0.427551     -100.784 
-7.20646e-05      8.28348     -128.530 
-3.65750e-05      3.29679     -125.618 
-5.46576e-05     0.357771     -63.4349 
3.63454e-05      8.27705     -144.044 
5.25140e-05      3.43796     -136.650 
1.83386e-05      9.08839     -142.601 
8.62365e-05      2.64824     -126.091 
-8.68421e-05      3.30847     -125.900 
6.92590e-05      8.27664     -136.665 
5.26459e-05      8.10195     -138.202 
8.67956e-05     0.483735     -29.7449 
-8.66337e-05      8.07775     -128.062 
5.18727e-05      8.49631     -143.616 
6.88428e-05      5.84127     -140.697 
6.89951e-05    0.0848528      135.000 
3.47701e-05      3.02417     -142.524 
-1.76963e-05      7.56227     -138.002 
3.49318e-05      2.40000     -143.130 
3.45777e-05      9.07251     -142.524 
3.45096e-05      1.06019     -125.789 
-5.12632e-05      7.57567     -137.889 
-5.11803e-05      5.60143     -133.843 
-5.11581e-05     0.514198      166.504 
-5.12451e-05     0.384708     -62.1027 
3.40499e-05      8.09108     -136.202 
3.39747e-05      8.29325     -144.125 
3.38077e-05     0.937443     -146.310 
5.08484e-05     0.341760     -20.5560 
-3.36382e-05      3.06529     -130.236 
1.69744e-05      8.42864     -142.423 
1.68748e-05      3.20031     -149.589 
1.67789e-05      9.57467     -140.424 
1.67554e-05      2.66451     -142.012 
-1.67044e-05      9.88658     -134.098 
-1.66774e-05      8.71156     -135.000 
1.66302e-05      8.95303     -142.260 
1.65603e-05      2.54849     -148.805 
